participant,painting_index.x,painting,distance_repetition,distance_trial,distance_index,distance_value,distance_responsetime,painting_index.y,liking_repetition,liking_trial,liking_index,liking_value,liking_responsetime,painting_index,abstraction_repetition,abstraction_trial,abstraction_index,abstraction_value,abstraction_responsetime,painting_index_comparison.x,comparison_position_1,comparison_position_2,comparison_painting,comparison_repetition,comparison_trial,comparison_index,comparison_value,comparison_responsetime,painting_index_comparison.y,painter,painting_category,session,date,framerate,experiment,experience_rating,experience_responsetime,viewing_value,viewing_responsetime,distance_value_numeric,painting_category_num,Painting,set,Painter_set,art_exp
b_1,1,Paintings/Clifb2.jpeg,0,0,0,tomorrow,9.60865497589,1,0,0,0,5,16.697,1,0,11,11,3,5.282,NA,NA,NA,NA,NA,NA,NA,NA,NA,NA,Still,indeterminate,1,2016-07-14T14:57:00Z,59.9153760224,tryagainsim,novice,10.3272669315,1-4,10.5439050198,0,2,Clifb2.,B,StillB,novice 1-4
b_1,17,Paintings/Rothkoa3.jpeg,0,1,1,in a year,6.99412894249,17,0,13,13,3,3.779,17,0,17,17,7,5.679,7,"[0.4, 0]","[-0.4, 0]",Paintings/Rothkoa3new.jpeg,0,12,12,4,5.148,7,Rothko,abstract,1,2016-07-14T14:57:00Z,59.9153760224,tryagainsim,novice,10.3272669315,1-4,10.5439050198,1,3,Rothkoa3.,A,RothkoA,novice 1-4
b_1,12,Paintings/Closea1.jpeg,0,2,2,tomorrow,6.94038701057,12,0,16,16,6,5.183,12,0,9,9,1,3.408,11,"[0.4, 0]","[-0.4, 0]",Paintings/Closea1new.jpeg,0,13,13,3,5.916,11,Close,concrete,1,2016-07-14T14:57:00Z,59.9153760224,tryagainsim,novice,10.3272669315,1-4,10.5439050198,0,1,Closea1.,A,CloseA,novice 1-4
b_1,0,Paintings/Clifb1.jpeg,0,3,3,tomorrow,5.20406007767,0,0,19,19,3,4.412,0,0,10,10,1,1.401,NA,NA,NA,NA,NA,NA,NA,NA,NA,NA,Still,concrete,1,2016-07-14T14:57:00Z,59.9153760224,tryagainsim,novice,10.3272669315,1-4,10.5439050198,0,1,Clifb1.,B,StillB,novice 1-4
b_1,10,Paintings/Monb2.jpeg,0,4,4,tomorrow,5.1405980587,10,0,5,5,5,3.212,10,0,0,0,5,10.983,4,"[0.4, 0]","[-0.4, 0]",Paintings/Monb2new.jpeg,0,4,4,4,10.885,4,Mondrian,indeterminate,1,2016-07-14T14:57:00Z,59.9153760224,tryagainsim,novice,10.3272669315,1-4,10.5439050198,0,2,Monb2.,B,MondrianB,novice 1-4
b_1,15,Paintings/Rothkoa1.jpeg,0,5,5,in a year,3.03069710732,15,0,10,10,3,3.201,15,0,12,12,1,2.813,NA,NA,NA,NA,NA,NA,NA,NA,NA,NA,Rothko,concrete,1,2016-07-14T14:57:00Z,59.9153760224,tryagainsim,novice,10.3272669315,1-4,10.5439050198,1,1,Rothkoa1.,A,RothkoA,novice 1-4
b_1,16,Paintings/Rothkoa2.jpeg,0,6,6,in a year,7.16129302979,16,0,2,2,4,5.185,16,0,15,15,6,5.977,6,"[0.4, 0]","[-0.4, 0]",Paintings/Rothkoa2new.jpeg,0,11,11,5,3.077,6,Rothko,indeterminate,1,2016-07-14T14:57:00Z,59.9153760224,tryagainsim,novice,10.3272669315,1-4,10.5439050198,1,2,Rothkoa2.,A,RothkoA,novice 1-4
b_1,6,Paintings/MonA1.jpeg,0,7,7,tomorrow,5.43735980988,6,0,14,14,6,1.87,6,0,18,18,1,4.575,0,"[0.4, 0]","[-0.4, 0]",Paintings/MonA1new.jpeg,0,1,1,2,11.255,0,Mondrian,concrete,1,2016-07-14T14:57:00Z,59.9153760224,tryagainsim,novice,10.3272669315,1-4,10.5439050198,0,1,MonA1.,A,MondrianA,novice 1-4
b_1,18,Paintings/Rothkob1.jpeg,0,8,8,in a year,4.63861107826,18,0,12,12,4,1.947,18,0,16,16,2,6.044,8,"[0.4, 0]","[-0.4, 0]",Paintings/Rothkob1new.jpeg,0,9,9,5,5.016,8,Rothko,concrete,1,2016-07-14T14:57:00Z,59.9153760224,tryagainsim,novice,10.3272669315,1-4,10.5439050198,1,1,Rothkob1.,B,RothkoB,novice 1-4
b_1,7,Paintings/MonA2.jpeg,0,9,9,in a year,3.20303702354,7,0,6,6,6,1.91,7,0,2,2,4,6.052,1,"[0.4, 0]","[-0.4, 0]",Paintings/MonA2new.jpeg,0,0,0,5,15.116,1,Mondrian,indeterminate,1,2016-07-14T14:57:00Z,59.9153760224,tryagainsim,novice,10.3272669315,1-4,10.5439050198,1,2,MonA2.,A,MondrianA,novice 1-4
b_1,13,Paintings/Closea2.jpeg,0,10,10,tomorrow,4.97675991058,13,0,20,20,5,2.583,13,0,13,13,7,6.64,12,"[0.4, 0]","[-0.4, 0]",Paintings/Closea2new.jpeg,0,3,3,3,3.806,12,Close,indeterminate,1,2016-07-14T14:57:00Z,59.9153760224,tryagainsim,novice,10.3272669315,1-4,10.5439050198,0,2,Closea2.,A,CloseA,novice 1-4
b_1,14,Paintings/Closea3.jpeg,0,11,11,in a year,6.90513706207,14,0,8,8,4,2.182,14,0,1,1,7,7.599,13,"[0.4, 0]","[-0.4, 0]",Paintings/Closea2new.jpeg,0,2,2,4,7.853,13,Close,abstract,1,2016-07-14T14:57:00Z,59.9153760224,tryagainsim,novice,10.3272669315,1-4,10.5439050198,1,3,Closea3.,A,CloseA,novice 1-4
b_1,9,Paintings/Monb1.jpeg,0,12,12,in a year,3.70317602158,9,0,7,7,4,2.734,9,0,3,3,1,4.348,3,"[0.4, 0]","[-0.4, 0]",Paintings/Monb1new.jpeg,0,5,5,2,4.042,3,Mondrian,concrete,1,2016-07-14T14:57:00Z,59.9153760224,tryagainsim,novice,10.3272669315,1-4,10.5439050198,1,1,Monb1.,B,MondrianB,novice 1-4
b_1,4,Paintings/Clifa2.jpeg,0,13,13,tomorrow,3.19406914711,4,0,4,4,5,3.537,4,0,20,20,5,9.045,NA,NA,NA,NA,NA,NA,NA,NA,NA,NA,Still,indeterminate,1,2016-07-14T14:57:00Z,59.9153760224,tryagainsim,novice,10.3272669315,1-4,10.5439050198,0,2,Clifa2.,A,StillA,novice 1-4
b_1,19,Paintings/Rothkob2.jpeg,0,14,14,in a year,3.36292290688,19,0,3,3,3,4.28,19,0,6,6,4,6.951,9,"[0.4, 0]","[-0.4, 0]",Paintings/Rothkob3new2.jpeg,0,7,7,3,3.044,9,Rothko,indeterminate,1,2016-07-14T14:57:00Z,59.9153760224,tryagainsim,novice,10.3272669315,1-4,10.5439050198,1,2,Rothkob2.,B,RothkoB,novice 1-4
b_1,20,Paintings/Rothkob3.jpeg,0,15,15,tomorrow,3.76609802246,20,0,1,1,4,12.414,20,0,14,14,7,2.001,10,"[0.4, 0]","[-0.4, 0]",Paintings/Rothkob2new3.jpeg,0,10,10,4,4.146,10,Rothko,abstract,1,2016-07-14T14:57:00Z,59.9153760224,tryagainsim,novice,10.3272669315,1-4,10.5439050198,0,3,Rothkob3.,B,RothkoB,novice 1-4
b_1,3,Paintings/Clifa1.jpeg,0,16,16,in a year,1.896089077,3,0,9,9,5,2.001,3,0,19,19,1,2.008,NA,NA,NA,NA,NA,NA,NA,NA,NA,NA,Still,concrete,1,2016-07-14T14:57:00Z,59.9153760224,tryagainsim,novice,10.3272669315,1-4,10.5439050198,1,1,Clifa1.,A,StillA,novice 1-4
b_1,11,Paintings/Monb3.jpeg,0,17,17,tomorrow,2.12918281555,11,0,18,18,4,2.244,11,0,4,4,7,4.647,5,"[0.4, 0]","[-0.4, 0]",Paintings/Monb3new.jpeg,0,8,8,4,7.081,5,Mondrian,abstract,1,2016-07-14T14:57:00Z,59.9153760224,tryagainsim,novice,10.3272669315,1-4,10.5439050198,0,3,Monb3.,B,MondrianB,novice 1-4
b_1,8,Paintings/MonA3.jpeg,0,18,18,tomorrow,0.759207963943,8,0,17,17,6,1.581,8,0,7,7,7,4.908,2,"[0.4, 0]","[-0.4, 0]",Paintings/MonA3new.jpeg,0,6,6,6,5.549,2,Mondrian,abstract,1,2016-07-14T14:57:00Z,59.9153760224,tryagainsim,novice,10.3272669315,1-4,10.5439050198,0,3,MonA3.,A,MondrianA,novice 1-4
b_1,5,Paintings/Clifa3.jpeg,0,19,19,tomorrow,2.2557618618,5,0,15,15,4,5.453,5,0,8,8,7,1.704,NA,NA,NA,NA,NA,NA,NA,NA,NA,NA,Still,abstract,1,2016-07-14T14:57:00Z,59.9153760224,tryagainsim,novice,10.3272669315,1-4,10.5439050198,0,3,Clifa3.,A,StillA,novice 1-4
b_1,2,Paintings/Clifb3.jpeg,0,20,20,tomorrow,1.83274102211,2,0,11,11,5,4.319,2,0,5,5,7,2.071,NA,NA,NA,NA,NA,NA,NA,NA,NA,NA,Still,abstract,1,2016-07-14T14:57:00Z,59.9153760224,tryagainsim,novice,10.3272669315,1-4,10.5439050198,0,3,Clifb3.,B,StillB,novice 1-4
b_2,15,Paintings/Rothkoa1.jpeg,0,0,0,tomorrow,6.96206903458,15,0,13,13,4,3.711,15,0,0,0,1,7.074,NA,NA,NA,NA,NA,NA,NA,NA,NA,NA,Rothko,concrete,1,2016-07-14T16:44:00Z,59.9387508664,tryagainsim,enthusiast,7.0237929821,1-4,6.79004693031,0,1,Rothkoa1.,A,RothkoA,enthusiast 1-4
b_2,18,Paintings/Rothkob1.jpeg,0,1,1,tomorrow,3.46905708313,18,0,0,0,4,6.711,18,0,4,4,2,8.407,8,"[0.4, 0]","[-0.4, 0]",Paintings/Rothkob1new.jpeg,0,11,11,6,4.2,8,Rothko,concrete,1,2016-07-14T16:44:00Z,59.9387508664,tryagainsim,enthusiast,7.0237929821,1-4,6.79004693031,0,1,Rothkob1.,B,RothkoB,enthusiast 1-4
b_2,6,Paintings/MonA1.jpeg,0,2,2,tomorrow,3.16752409935,6,0,1,1,5,3.21,6,0,16,16,1,2.003,0,"[0.4, 0]","[-0.4, 0]",Paintings/MonA1new.jpeg,0,6,6,7,3.003,0,Mondrian,concrete,1,2016-07-14T16:44:00Z,59.9387508664,tryagainsim,enthusiast,7.0237929821,1-4,6.79004693031,0,1,MonA1.,A,MondrianA,enthusiast 1-4
b_2,10,Paintings/Monb2.jpeg,0,3,3,tomorrow,2.08954000473,10,0,9,9,6,2.135,10,0,6,6,5,3.483,4,"[0.4, 0]","[-0.4, 0]",Paintings/Monb2new.jpeg,0,3,3,6,3.216,4,Mondrian,indeterminate,1,2016-07-14T16:44:00Z,59.9387508664,tryagainsim,enthusiast,7.0237929821,1-4,6.79004693031,0,2,Monb2.,B,MondrianB,enthusiast 1-4
b_2,1,Paintings/Clifb2.jpeg,0,4,4,tomorrow,2.06177210808,1,0,12,12,4,6.144,1,0,11,11,5,6.912,NA,NA,NA,NA,NA,NA,NA,NA,NA,NA,Still,indeterminate,1,2016-07-14T16:44:00Z,59.9387508664,tryagainsim,enthusiast,7.0237929821,1-4,6.79004693031,0,2,Clifb2.,B,StillB,enthusiast 1-4
b_2,9,Paintings/Monb1.jpeg,0,5,5,tomorrow,3.46524691582,9,0,7,7,4,5.241,9,0,10,10,1,1.999,3,"[0.4, 0]","[-0.4, 0]",Paintings/Monb1new.jpeg,0,8,8,3,5.348,3,Mondrian,concrete,1,2016-07-14T16:44:00Z,59.9387508664,tryagainsim,enthusiast,7.0237929821,1-4,6.79004693031,0,1,Monb1.,B,MondrianB,enthusiast 1-4
b_2,5,Paintings/Clifa3.jpeg,0,6,6,in a year,1.83277392387,5,0,3,3,2,7.048,5,0,8,8,7,2.382,NA,NA,NA,NA,NA,NA,NA,NA,NA,NA,Still,abstract,1,2016-07-14T16:44:00Z,59.9387508664,tryagainsim,enthusiast,7.0237929821,1-4,6.79004693031,1,3,Clifa3.,A,StillA,enthusiast 1-4
b_2,12,Paintings/Closea1.jpeg,0,7,7,in a year,2.23301291466,12,0,17,17,4,2.914,12,0,3,3,1,2.136,11,"[0.4, 0]","[-0.4, 0]",Paintings/Closea1new.jpeg,0,1,1,6,4.476,11,Close,concrete,1,2016-07-14T16:44:00Z,59.9387508664,tryagainsim,enthusiast,7.0237929821,1-4,6.79004693031,1,1,Closea1.,A,CloseA,enthusiast 1-4
b_2,7,Paintings/MonA2.jpeg,0,8,8,tomorrow,1.03153991699,7,0,19,19,6,3.078,7,0,20,20,5,1.978,1,"[0.4, 0]","[-0.4, 0]",Paintings/MonA2new.jpeg,0,0,0,4,11.319,1,Mondrian,indeterminate,1,2016-07-14T16:44:00Z,59.9387508664,tryagainsim,enthusiast,7.0237929821,1-4,6.79004693031,0,2,MonA2.,A,MondrianA,enthusiast 1-4
b_2,19,Paintings/Rothkob2.jpeg,0,9,9,tomorrow,1.03219509125,19,0,14,14,4,3.447,19,0,19,19,6,11.644,9,"[0.4, 0]","[-0.4, 0]",Paintings/Rothkob3new2.jpeg,0,7,7,5,3.103,9,Rothko,indeterminate,1,2016-07-14T16:44:00Z,59.9387508664,tryagainsim,enthusiast,7.0237929821,1-4,6.79004693031,0,2,Rothkob2.,B,RothkoB,enthusiast 1-4
b_2,8,Paintings/MonA3.jpeg,0,10,10,in a year,2.05547308922,8,0,20,20,7,1.846,8,0,18,18,5,3.609,2,"[0.4, 0]","[-0.4, 0]",Paintings/MonA3new.jpeg,0,13,13,7,3.004,2,Mondrian,abstract,1,2016-07-14T16:44:00Z,59.9387508664,tryagainsim,enthusiast,7.0237929821,1-4,6.79004693031,1,3,MonA3.,A,MondrianA,enthusiast 1-4
b_2,4,Paintings/Clifa2.jpeg,0,11,11,tomorrow,1.42393994331,4,0,18,18,4,2.841,4,0,2,2,6,2.017,NA,NA,NA,NA,NA,NA,NA,NA,NA,NA,Still,indeterminate,1,2016-07-14T16:44:00Z,59.9387508664,tryagainsim,enthusiast,7.0237929821,1-4,6.79004693031,0,2,Clifa2.,A,StillA,enthusiast 1-4
b_2,11,Paintings/Monb3.jpeg,0,12,12,tomorrow,0.935156106949,11,0,11,11,7,1.978,11,0,1,1,6,6.475,5,"[0.4, 0]","[-0.4, 0]",Paintings/Monb3new.jpeg,0,12,12,6,2.433,5,Mondrian,abstract,1,2016-07-14T16:44:00Z,59.9387508664,tryagainsim,enthusiast,7.0237929821,1-4,6.79004693031,0,3,Monb3.,B,MondrianB,enthusiast 1-4
b_2,20,Paintings/Rothkob3.jpeg,0,13,13,in a year,1.30063796043,20,0,2,2,7,2.804,20,0,13,13,7,1.639,10,"[0.4, 0]","[-0.4, 0]",Paintings/Rothkob2new3.jpeg,0,5,5,7,3.946,10,Rothko,abstract,1,2016-07-14T16:44:00Z,59.9387508664,tryagainsim,enthusiast,7.0237929821,1-4,6.79004693031,1,3,Rothkob3.,B,RothkoB,enthusiast 1-4
b_2,13,Paintings/Closea2.jpeg,0,14,14,in a year,0.900333166122,13,0,8,8,5,2.308,13,0,12,12,7,1.904,12,"[0.4, 0]","[-0.4, 0]",Paintings/Closea2new.jpeg,0,2,2,6,3.34,12,Close,indeterminate,1,2016-07-14T16:44:00Z,59.9387508664,tryagainsim,enthusiast,7.0237929821,1-4,6.79004693031,1,2,Closea2.,A,CloseA,enthusiast 1-4
b_2,3,Paintings/Clifa1.jpeg,0,15,15,tomorrow,2.48935103416,3,0,4,4,2,6.587,3,0,17,17,1,2.143,NA,NA,NA,NA,NA,NA,NA,NA,NA,NA,Still,concrete,1,2016-07-14T16:44:00Z,59.9387508664,tryagainsim,enthusiast,7.0237929821,1-4,6.79004693031,0,1,Clifa1.,A,StillA,enthusiast 1-4
b_2,0,Paintings/Clifb1.jpeg,0,16,16,tomorrow,3.70375299454,0,0,15,15,5,3.006,0,0,15,15,1,2.175,NA,NA,NA,NA,NA,NA,NA,NA,NA,NA,Still,concrete,1,2016-07-14T16:44:00Z,59.9387508664,tryagainsim,enthusiast,7.0237929821,1-4,6.79004693031,0,1,Clifb1.,B,StillB,enthusiast 1-4
b_2,14,Paintings/Closea3.jpeg,0,17,17,tomorrow,1.45820307732,14,0,10,10,5,2.01,14,0,9,9,7,2.374,13,"[0.4, 0]","[-0.4, 0]",Paintings/Closea2new.jpeg,0,4,4,3,10.49,13,Close,abstract,1,2016-07-14T16:44:00Z,59.9387508664,tryagainsim,enthusiast,7.0237929821,1-4,6.79004693031,0,3,Closea3.,A,CloseA,enthusiast 1-4
b_2,2,Paintings/Clifb3.jpeg,0,18,18,in a year,1.29472088814,2,0,6,6,5,2.649,2,0,5,5,7,2.01,NA,NA,NA,NA,NA,NA,NA,NA,NA,NA,Still,abstract,1,2016-07-14T16:44:00Z,59.9387508664,tryagainsim,enthusiast,7.0237929821,1-4,6.79004693031,1,3,Clifb3.,B,StillB,enthusiast 1-4
b_2,17,Paintings/Rothkoa3.jpeg,0,19,19,in a year,5.17527604103,17,0,16,16,4,2.073,17,0,7,7,7,2.038,7,"[0.4, 0]","[-0.4, 0]",Paintings/Rothkoa3new.jpeg,0,9,9,6,3.275,7,Rothko,abstract,1,2016-07-14T16:44:00Z,59.9387508664,tryagainsim,enthusiast,7.0237929821,1-4,6.79004693031,1,3,Rothkoa3.,A,RothkoA,enthusiast 1-4
b_2,16,Paintings/Rothkoa2.jpeg,0,20,20,tomorrow,1.28823900223,16,0,5,5,6,5.719,16,0,14,14,5,5.807,6,"[0.4, 0]","[-0.4, 0]",Paintings/Rothkoa2new.jpeg,0,10,10,7,2.649,6,Rothko,indeterminate,1,2016-07-14T16:44:00Z,59.9387508664,tryagainsim,enthusiast,7.0237929821,1-4,6.79004693031,0,2,Rothkoa2.,A,RothkoA,enthusiast 1-4
b_3,13,Paintings/Closea2.jpeg,0,0,0,tomorrow,7.26521587372,13,0,6,6,5,2.541,13,0,11,11,6,5.377,12,"[0.4, 0]","[-0.4, 0]",Paintings/Closea2new.jpeg,0,1,1,5,7.627,12,Close,indeterminate,1,2016-07-14T16:51:00Z,59.9480887751,tryagainsim,novice,10.8945128918,0,13.8469538689,0,2,Closea2.,A,CloseA,novice 0
b_3,12,Paintings/Closea1.jpeg,0,1,1,in a year,3.40045404434,12,0,1,1,6,4.018,12,0,10,10,1,7.176,11,"[0.4, 0]","[-0.4, 0]",Paintings/Closea1new.jpeg,0,0,0,7,5.48,11,Close,concrete,1,2016-07-14T16:51:00Z,59.9480887751,tryagainsim,novice,10.8945128918,0,13.8469538689,1,1,Closea1.,A,CloseA,novice 0
b_3,18,Paintings/Rothkob1.jpeg,0,2,2,tomorrow,2.45939803123,18,0,9,9,4,2.502,18,0,14,14,5,3.384,8,"[0.4, 0]","[-0.4, 0]",Paintings/Rothkob1new.jpeg,0,8,8,4,5.963,8,Rothko,concrete,1,2016-07-14T16:51:00Z,59.9480887751,tryagainsim,novice,10.8945128918,0,13.8469538689,0,1,Rothkob1.,B,RothkoB,novice 0
b_3,10,Paintings/Monb2.jpeg,0,3,3,tomorrow,2.80048084259,10,0,4,4,1,2.703,10,0,4,4,7,2.369,4,"[0.4, 0]","[-0.4, 0]",Paintings/Monb2new.jpeg,0,6,6,6,4.316,4,Mondrian,indeterminate,1,2016-07-14T16:51:00Z,59.9480887751,tryagainsim,novice,10.8945128918,0,13.8469538689,0,2,Monb2.,B,MondrianB,novice 0
b_3,4,Paintings/Clifa2.jpeg,0,4,4,in a year,1.95555996895,4,0,11,11,5,2.639,4,0,18,18,5,1.95,NA,NA,NA,NA,NA,NA,NA,NA,NA,NA,Still,indeterminate,1,2016-07-14T16:51:00Z,59.9480887751,tryagainsim,novice,10.8945128918,0,13.8469538689,1,2,Clifa2.,A,StillA,novice 0
b_3,15,Paintings/Rothkoa1.jpeg,0,5,5,tomorrow,3.49724912643,15,0,0,0,5,9.377,15,0,15,15,2,3.968,NA,NA,NA,NA,NA,NA,NA,NA,NA,NA,Rothko,concrete,1,2016-07-14T16:51:00Z,59.9480887751,tryagainsim,novice,10.8945128918,0,13.8469538689,0,1,Rothkoa1.,A,RothkoA,novice 0
b_3,17,Paintings/Rothkoa3.jpeg,0,6,6,tomorrow,1.72194814682,17,0,13,13,6,2.503,17,0,20,20,6,2.506,7,"[0.4, 0]","[-0.4, 0]",Paintings/Rothkoa3new.jpeg,0,11,11,3,2.671,7,Rothko,abstract,1,2016-07-14T16:51:00Z,59.9480887751,tryagainsim,novice,10.8945128918,0,13.8469538689,0,3,Rothkoa3.,A,RothkoA,novice 0
b_3,9,Paintings/Monb1.jpeg,0,7,7,in a year,2.02794098854,9,0,18,18,6,2.904,9,0,12,12,2,2.569,3,"[0.4, 0]","[-0.4, 0]",Paintings/Monb1new.jpeg,0,3,3,3,7.113,3,Mondrian,concrete,1,2016-07-14T16:51:00Z,59.9480887751,tryagainsim,novice,10.8945128918,0,13.8469538689,1,1,Monb1.,B,MondrianB,novice 0
b_3,7,Paintings/MonA2.jpeg,0,8,8,in a year,1.60077190399,7,0,7,7,2,3.149,7,0,6,6,4,4.685,1,"[0.4, 0]","[-0.4, 0]",Paintings/MonA2new.jpeg,0,9,9,4,5.876,1,Mondrian,indeterminate,1,2016-07-14T16:51:00Z,59.9480887751,tryagainsim,novice,10.8945128918,0,13.8469538689,1,2,MonA2.,A,MondrianA,novice 0
b_3,11,Paintings/Monb3.jpeg,0,9,9,in a year,1.88990712166,11,0,19,19,2,2.575,11,0,13,13,7,3.609,5,"[0.4, 0]","[-0.4, 0]",Paintings/Monb3new.jpeg,0,7,7,7,4.709,5,Mondrian,abstract,1,2016-07-14T16:51:00Z,59.9480887751,tryagainsim,novice,10.8945128918,0,13.8469538689,1,3,Monb3.,B,MondrianB,novice 0
b_3,6,Paintings/MonA1.jpeg,0,10,10,tomorrow,1.2906999588,6,0,5,5,6,3.342,6,0,8,8,3,3.116,0,"[0.4, 0]","[-0.4, 0]",Paintings/MonA1new.jpeg,0,2,2,4,6.345,0,Mondrian,concrete,1,2016-07-14T16:51:00Z,59.9480887751,tryagainsim,novice,10.8945128918,0,13.8469538689,0,1,MonA1.,A,MondrianA,novice 0
b_3,20,Paintings/Rothkob3.jpeg,0,11,11,tomorrow,2.26670408249,20,0,17,17,3,2.238,20,0,1,1,7,3.837,10,"[0.4, 0]","[-0.4, 0]",Paintings/Rothkob2new3.jpeg,0,12,12,6,2.618,10,Rothko,abstract,1,2016-07-14T16:51:00Z,59.9480887751,tryagainsim,novice,10.8945128918,0,13.8469538689,0,3,Rothkob3.,B,RothkoB,novice 0
b_3,5,Paintings/Clifa3.jpeg,0,12,12,in a year,1.6223449707,5,0,2,2,2,3.273,5,0,2,2,7,4.983,NA,NA,NA,NA,NA,NA,NA,NA,NA,NA,Still,abstract,1,2016-07-14T16:51:00Z,59.9480887751,tryagainsim,novice,10.8945128918,0,13.8469538689,1,3,Clifa3.,A,StillA,novice 0
b_3,19,Paintings/Rothkob2.jpeg,0,13,13,tomorrow,3.32949495316,19,0,12,12,6,2.581,19,0,17,17,6,3.411,9,"[0.4, 0]","[-0.4, 0]",Paintings/Rothkob3new2.jpeg,0,10,10,3,5.721,9,Rothko,indeterminate,1,2016-07-14T16:51:00Z,59.9480887751,tryagainsim,novice,10.8945128918,0,13.8469538689,0,2,Rothkob2.,B,RothkoB,novice 0
b_3,0,Paintings/Clifb1.jpeg,0,14,14,in a year,1.86025094986,0,0,20,20,3,2.479,0,0,0,0,2,10.679,NA,NA,NA,NA,NA,NA,NA,NA,NA,NA,Still,concrete,1,2016-07-14T16:51:00Z,59.9480887751,tryagainsim,novice,10.8945128918,0,13.8469538689,1,1,Clifb1.,B,StillB,novice 0
b_3,16,Paintings/Rothkoa2.jpeg,0,15,15,in a year,1.90149784088,16,0,14,14,6,4.247,16,0,16,16,6,3.742,6,"[0.4, 0]","[-0.4, 0]",Paintings/Rothkoa2new.jpeg,0,5,5,5,6.91,6,Rothko,indeterminate,1,2016-07-14T16:51:00Z,59.9480887751,tryagainsim,novice,10.8945128918,0,13.8469538689,1,2,Rothkoa2.,A,RothkoA,novice 0
b_3,8,Paintings/MonA3.jpeg,0,16,16,in a year,1.98983502388,8,0,3,3,2,3.01,8,0,5,5,6,4.311,2,"[0.4, 0]","[-0.4, 0]",Paintings/MonA3new.jpeg,0,4,4,7,2.911,2,Mondrian,abstract,1,2016-07-14T16:51:00Z,59.9480887751,tryagainsim,novice,10.8945128918,0,13.8469538689,1,3,MonA3.,A,MondrianA,novice 0
b_3,3,Paintings/Clifa1.jpeg,0,17,17,tomorrow,1.80087399483,3,0,16,16,6,2.846,3,0,3,3,1,2.317,NA,NA,NA,NA,NA,NA,NA,NA,NA,NA,Still,concrete,1,2016-07-14T16:51:00Z,59.9480887751,tryagainsim,novice,10.8945128918,0,13.8469538689,0,1,Clifa1.,A,StillA,novice 0
b_3,14,Paintings/Closea3.jpeg,0,18,18,tomorrow,1.53334903717,14,0,8,8,1,3.317,14,0,7,7,6,5.586,13,"[0.4, 0]","[-0.4, 0]",Paintings/Closea2new.jpeg,0,13,13,5,3.121,13,Close,abstract,1,2016-07-14T16:51:00Z,59.9480887751,tryagainsim,novice,10.8945128918,0,13.8469538689,0,3,Closea3.,A,CloseA,novice 0
b_3,2,Paintings/Clifb3.jpeg,0,19,19,in a year,2.09546494484,2,0,10,10,4,2.906,2,0,19,19,6,6.813,NA,NA,NA,NA,NA,NA,NA,NA,NA,NA,Still,abstract,1,2016-07-14T16:51:00Z,59.9480887751,tryagainsim,novice,10.8945128918,0,13.8469538689,1,3,Clifb3.,B,StillB,novice 0
b_3,1,Paintings/Clifb2.jpeg,0,20,20,in a year,3.89899682999,1,0,15,15,5,3.513,1,0,9,9,5,4.485,NA,NA,NA,NA,NA,NA,NA,NA,NA,NA,Still,indeterminate,1,2016-07-14T16:51:00Z,59.9480887751,tryagainsim,novice,10.8945128918,0,13.8469538689,1,2,Clifb2.,B,StillB,novice 0
b_4,18,Paintings/Rothkob1.jpeg,0,0,0,tomorrow,14.6746919155,18,0,2,2,3,12.411,18,0,3,3,4,4.07,8,"[0.4, 0]","[-0.4, 0]",Paintings/Rothkob1new.jpeg,0,12,12,6,8.443,8,Rothko,concrete,1,2016-07-14T17:10:00Z,59.9995422398,tryagainsim,enthusiast,10.3270831108,0,6.75687599182,0,1,Rothkob1.,B,RothkoB,enthusiast 0
b_4,14,Paintings/Closea3.jpeg,0,1,1,tomorrow,7.27580285072,14,0,11,11,2,3.315,14,0,20,20,7,1.709,13,"[0.4, 0]","[-0.4, 0]",Paintings/Closea2new.jpeg,0,9,9,4,2.617,13,Close,abstract,1,2016-07-14T17:10:00Z,59.9995422398,tryagainsim,enthusiast,10.3270831108,0,6.75687599182,0,3,Closea3.,A,CloseA,enthusiast 0
b_4,10,Paintings/Monb2.jpeg,0,2,2,tomorrow,5.56368517876,10,0,17,17,3,4.517,10,0,6,6,5,1.481,4,"[0.4, 0]","[-0.4, 0]",Paintings/Monb2new.jpeg,0,4,4,3,4.977,4,Mondrian,indeterminate,1,2016-07-14T17:10:00Z,59.9995422398,tryagainsim,enthusiast,10.3270831108,0,6.75687599182,0,2,Monb2.,B,MondrianB,enthusiast 0
b_4,3,Paintings/Clifa1.jpeg,0,3,3,tomorrow,7.80924201012,3,0,8,8,6,7.021,3,0,19,19,2,1.776,NA,NA,NA,NA,NA,NA,NA,NA,NA,NA,Still,concrete,1,2016-07-14T17:10:00Z,59.9995422398,tryagainsim,enthusiast,10.3270831108,0,6.75687599182,0,1,Clifa1.,A,StillA,enthusiast 0
b_4,7,Paintings/MonA2.jpeg,0,4,4,tomorrow,2.82871794701,7,0,4,4,6,8.316,7,0,14,14,6,1.811,1,"[0.4, 0]","[-0.4, 0]",Paintings/MonA2new.jpeg,0,2,2,2,7.822,1,Mondrian,indeterminate,1,2016-07-14T17:10:00Z,59.9995422398,tryagainsim,enthusiast,10.3270831108,0,6.75687599182,0,2,MonA2.,A,MondrianA,enthusiast 0
b_4,13,Paintings/Closea2.jpeg,0,5,5,tomorrow,4.66847801208,13,0,5,5,3,3.478,13,0,0,0,6,5.742,12,"[0.4, 0]","[-0.4, 0]",Paintings/Closea2new.jpeg,0,8,8,4,4.678,12,Close,indeterminate,1,2016-07-14T17:10:00Z,59.9995422398,tryagainsim,enthusiast,10.3270831108,0,6.75687599182,0,2,Closea2.,A,CloseA,enthusiast 0
b_4,9,Paintings/Monb1.jpeg,0,6,6,in a year,4.73532795906,9,0,10,10,1,2.716,9,0,2,2,1,3.38,3,"[0.4, 0]","[-0.4, 0]",Paintings/Monb1new.jpeg,0,11,11,3,4.475,3,Mondrian,concrete,1,2016-07-14T17:10:00Z,59.9995422398,tryagainsim,enthusiast,10.3270831108,0,6.75687599182,1,1,Monb1.,B,MondrianB,enthusiast 0
b_4,6,Paintings/MonA1.jpeg,0,7,7,tomorrow,2.69390797615,6,0,1,1,7,7.684,6,0,8,8,2,4.17,0,"[0.4, 0]","[-0.4, 0]",Paintings/MonA1new.jpeg,0,5,5,1,4.554,0,Mondrian,concrete,1,2016-07-14T17:10:00Z,59.9995422398,tryagainsim,enthusiast,10.3270831108,0,6.75687599182,0,1,MonA1.,A,MondrianA,enthusiast 0
b_4,16,Paintings/Rothkoa2.jpeg,0,8,8,tomorrow,1.96649384499,16,0,12,12,5,2.973,16,0,7,7,5,2.814,6,"[0.4, 0]","[-0.4, 0]",Paintings/Rothkoa2new.jpeg,0,1,1,4,5.079,6,Rothko,indeterminate,1,2016-07-14T17:10:00Z,59.9995422398,tryagainsim,enthusiast,10.3270831108,0,6.75687599182,0,2,Rothkoa2.,A,RothkoA,enthusiast 0
b_4,17,Paintings/Rothkoa3.jpeg,0,9,9,in a year,3.63229608536,17,0,0,0,2,16.197,17,0,16,16,7,1.204,7,"[0.4, 0]","[-0.4, 0]",Paintings/Rothkoa3new.jpeg,0,7,7,5,3.503,7,Rothko,abstract,1,2016-07-14T17:10:00Z,59.9995422398,tryagainsim,enthusiast,10.3270831108,0,6.75687599182,1,3,Rothkoa3.,A,RothkoA,enthusiast 0
b_4,8,Paintings/MonA3.jpeg,0,10,10,tomorrow,1.26885294914,8,0,16,16,7,7.78,8,0,17,17,7,2.038,2,"[0.4, 0]","[-0.4, 0]",Paintings/MonA3new.jpeg,0,10,10,6,2.34,2,Mondrian,abstract,1,2016-07-14T17:10:00Z,59.9995422398,tryagainsim,enthusiast,10.3270831108,0,6.75687599182,0,3,MonA3.,A,MondrianA,enthusiast 0
b_4,15,Paintings/Rothkoa1.jpeg,0,11,11,tomorrow,6.67002391815,15,0,14,14,3,4.58,15,0,18,18,2,2.481,NA,NA,NA,NA,NA,NA,NA,NA,NA,NA,Rothko,concrete,1,2016-07-14T17:10:00Z,59.9995422398,tryagainsim,enthusiast,10.3270831108,0,6.75687599182,0,1,Rothkoa1.,A,RothkoA,enthusiast 0
b_4,1,Paintings/Clifb2.jpeg,0,12,12,tomorrow,1.56255698204,1,0,7,7,2,3.214,1,0,13,13,5,1.978,NA,NA,NA,NA,NA,NA,NA,NA,NA,NA,Still,indeterminate,1,2016-07-14T17:10:00Z,59.9995422398,tryagainsim,enthusiast,10.3270831108,0,6.75687599182,0,2,Clifb2.,B,StillB,enthusiast 0
b_4,2,Paintings/Clifb3.jpeg,0,13,13,tomorrow,3.32790279388,2,0,15,15,2,3.07,2,0,4,4,6,2.141,NA,NA,NA,NA,NA,NA,NA,NA,NA,NA,Still,abstract,1,2016-07-14T17:10:00Z,59.9995422398,tryagainsim,enthusiast,10.3270831108,0,6.75687599182,0,3,Clifb3.,B,StillB,enthusiast 0
b_4,19,Paintings/Rothkob2.jpeg,0,14,14,tomorrow,1.19299507141,19,0,18,18,3,4.95,19,0,12,12,5,2.113,9,"[0.4, 0]","[-0.4, 0]",Paintings/Rothkob3new2.jpeg,0,13,13,4,2.482,9,Rothko,indeterminate,1,2016-07-14T17:10:00Z,59.9995422398,tryagainsim,enthusiast,10.3270831108,0,6.75687599182,0,2,Rothkob2.,B,RothkoB,enthusiast 0
b_4,4,Paintings/Clifa2.jpeg,0,15,15,tomorrow,3.87185811996,4,0,3,3,3,3.806,4,0,5,5,5,1.75,NA,NA,NA,NA,NA,NA,NA,NA,NA,NA,Still,indeterminate,1,2016-07-14T17:10:00Z,59.9995422398,tryagainsim,enthusiast,10.3270831108,0,6.75687599182,0,2,Clifa2.,A,StillA,enthusiast 0
b_4,12,Paintings/Closea1.jpeg,0,16,16,tomorrow,5.30621600151,12,0,9,9,3,3.242,12,0,9,9,1,2.135,11,"[0.4, 0]","[-0.4, 0]",Paintings/Closea1new.jpeg,0,3,3,5,7.28,11,Close,concrete,1,2016-07-14T17:10:00Z,59.9995422398,tryagainsim,enthusiast,10.3270831108,0,6.75687599182,0,1,Closea1.,A,CloseA,enthusiast 0
b_4,0,Paintings/Clifb1.jpeg,0,17,17,tomorrow,3.43609499931,0,0,20,20,3,3.912,0,0,10,10,1,1.302,NA,NA,NA,NA,NA,NA,NA,NA,NA,NA,Still,concrete,1,2016-07-14T17:10:00Z,59.9995422398,tryagainsim,enthusiast,10.3270831108,0,6.75687599182,0,1,Clifb1.,B,StillB,enthusiast 0
b_4,20,Paintings/Rothkob3.jpeg,0,18,18,in a year,1.93435001373,20,0,19,19,1,3.315,20,0,15,15,7,2.538,10,"[0.4, 0]","[-0.4, 0]",Paintings/Rothkob2new3.jpeg,0,0,0,6,6.556,10,Rothko,abstract,1,2016-07-14T17:10:00Z,59.9995422398,tryagainsim,enthusiast,10.3270831108,0,6.75687599182,1,3,Rothkob3.,B,RothkoB,enthusiast 0
b_4,5,Paintings/Clifa3.jpeg,0,19,19,in a year,3.1639688015,5,0,6,6,1,2.383,5,0,1,1,7,2.108,NA,NA,NA,NA,NA,NA,NA,NA,NA,NA,Still,abstract,1,2016-07-14T17:10:00Z,59.9995422398,tryagainsim,enthusiast,10.3270831108,0,6.75687599182,1,3,Clifa3.,A,StillA,enthusiast 0
b_4,11,Paintings/Monb3.jpeg,0,20,20,tomorrow,1.32052898407,11,0,13,13,4,7.778,11,0,11,11,6,2.34,5,"[0.4, 0]","[-0.4, 0]",Paintings/Monb3new.jpeg,0,6,6,5,3.112,5,Mondrian,abstract,1,2016-07-14T17:10:00Z,59.9995422398,tryagainsim,enthusiast,10.3270831108,0,6.75687599182,0,3,Monb3.,B,MondrianB,enthusiast 0
b_5,18,Paintings/Rothkob1.jpeg,0,0,0,tomorrow,14.0110449791,18,0,16,16,6,2.383,18,0,3,3,1,6.539,8,"[0.4, 0]","[-0.4, 0]",Paintings/Rothkob1new.jpeg,0,8,8,6,11.884,8,Rothko,concrete,1,2016-07-14T18:40:00Z,59.9204261842,tryagainsim,enthusiast,9.74329996109,0,4.05394506454,0,1,Rothkob1.,B,RothkoB,enthusiast 0
b_5,8,Paintings/MonA3.jpeg,0,1,1,tomorrow,3.36901497841,8,0,14,14,6,2.573,8,0,0,0,6,6.881,2,"[0.4, 0]","[-0.4, 0]",Paintings/MonA3new.jpeg,0,11,11,6,3.203,2,Mondrian,abstract,1,2016-07-14T18:40:00Z,59.9204261842,tryagainsim,enthusiast,9.74329996109,0,4.05394506454,0,3,MonA3.,A,MondrianA,enthusiast 0
b_5,16,Paintings/Rothkoa2.jpeg,0,2,2,in a year,2.76204299927,16,0,8,8,4,5.546,16,0,9,9,6,5.412,6,"[0.4, 0]","[-0.4, 0]",Paintings/Rothkoa2new.jpeg,0,9,9,6,3.784,6,Rothko,indeterminate,1,2016-07-14T18:40:00Z,59.9204261842,tryagainsim,enthusiast,9.74329996109,0,4.05394506454,1,2,Rothkoa2.,A,RothkoA,enthusiast 0
b_5,20,Paintings/Rothkob3.jpeg,0,3,3,in a year,0.959348917007,20,0,1,1,1,7.444,20,0,11,11,7,2.066,10,"[0.4, 0]","[-0.4, 0]",Paintings/Rothkob2new3.jpeg,0,0,0,6,7.491,10,Rothko,abstract,1,2016-07-14T18:40:00Z,59.9204261842,tryagainsim,enthusiast,9.74329996109,0,4.05394506454,1,3,Rothkob3.,B,RothkoB,enthusiast 0
b_5,3,Paintings/Clifa1.jpeg,0,4,4,tomorrow,2.77043104172,3,0,20,20,7,2.145,3,0,15,15,2,2.28,NA,NA,NA,NA,NA,NA,NA,NA,NA,NA,Still,concrete,1,2016-07-14T18:40:00Z,59.9204261842,tryagainsim,enthusiast,9.74329996109,0,4.05394506454,0,1,Clifa1.,A,StillA,enthusiast 0
b_5,1,Paintings/Clifb2.jpeg,0,5,5,in a year,5.57534718513,1,0,2,2,2,3.611,1,0,19,19,4,2.582,NA,NA,NA,NA,NA,NA,NA,NA,NA,NA,Still,indeterminate,1,2016-07-14T18:40:00Z,59.9204261842,tryagainsim,enthusiast,9.74329996109,0,4.05394506454,1,2,Clifb2.,B,StillB,enthusiast 0
b_5,13,Paintings/Closea2.jpeg,0,6,6,in a year,2.59422016144,13,0,7,7,4,2.972,13,0,16,16,7,3.738,12,"[0.4, 0]","[-0.4, 0]",Paintings/Closea2new.jpeg,0,6,6,4,13.856,12,Close,indeterminate,1,2016-07-14T18:40:00Z,59.9204261842,tryagainsim,enthusiast,9.74329996109,0,4.05394506454,1,2,Closea2.,A,CloseA,enthusiast 0
b_5,9,Paintings/Monb1.jpeg,0,7,7,tomorrow,2.29785203934,9,0,19,19,7,5.847,9,0,18,18,2,1.645,3,"[0.4, 0]","[-0.4, 0]",Paintings/Monb1new.jpeg,0,7,7,2,8.818,3,Mondrian,concrete,1,2016-07-14T18:40:00Z,59.9204261842,tryagainsim,enthusiast,9.74329996109,0,4.05394506454,0,1,Monb1.,B,MondrianB,enthusiast 0
b_5,0,Paintings/Clifb1.jpeg,0,8,8,tomorrow,1.36456513405,0,0,12,12,5,3.015,0,0,7,7,1,8.248,NA,NA,NA,NA,NA,NA,NA,NA,NA,NA,Still,concrete,1,2016-07-14T18:40:00Z,59.9204261842,tryagainsim,enthusiast,9.74329996109,0,4.05394506454,0,1,Clifb1.,B,StillB,enthusiast 0
b_5,2,Paintings/Clifb3.jpeg,0,9,9,tomorrow,2.02508020401,2,0,3,3,5,2.413,2,0,8,8,7,4.775,NA,NA,NA,NA,NA,NA,NA,NA,NA,NA,Still,abstract,1,2016-07-14T18:40:00Z,59.9204261842,tryagainsim,enthusiast,9.74329996109,0,4.05394506454,0,3,Clifb3.,B,StillB,enthusiast 0
b_5,11,Paintings/Monb3.jpeg,0,10,10,in a year,2.95800995827,11,0,15,15,5,2.442,11,0,12,12,7,2.769,5,"[0.4, 0]","[-0.4, 0]",Paintings/Monb3new.jpeg,0,3,3,6,9.284,5,Mondrian,abstract,1,2016-07-14T18:40:00Z,59.9204261842,tryagainsim,enthusiast,9.74329996109,0,4.05394506454,1,3,Monb3.,B,MondrianB,enthusiast 0
b_5,5,Paintings/Clifa3.jpeg,0,11,11,tomorrow,8.14078092575,5,0,17,17,6,2.284,5,0,5,5,6,4.305,NA,NA,NA,NA,NA,NA,NA,NA,NA,NA,Still,abstract,1,2016-07-14T18:40:00Z,59.9204261842,tryagainsim,enthusiast,9.74329996109,0,4.05394506454,0,3,Clifa3.,A,StillA,enthusiast 0
b_5,19,Paintings/Rothkob2.jpeg,0,12,12,in a year,7.43358898163,19,0,6,6,3,2.911,19,0,6,6,6,5.811,9,"[0.4, 0]","[-0.4, 0]",Paintings/Rothkob3new2.jpeg,0,4,4,4,9.181,9,Rothko,indeterminate,1,2016-07-14T18:40:00Z,59.9204261842,tryagainsim,enthusiast,9.74329996109,0,4.05394506454,1,2,Rothkob2.,B,RothkoB,enthusiast 0
b_5,12,Paintings/Closea1.jpeg,0,13,13,in a year,1.6974568367,12,0,11,11,1,2.347,12,0,4,4,1,1.837,11,"[0.4, 0]","[-0.4, 0]",Paintings/Closea1new.jpeg,0,13,13,6,5.94,11,Close,concrete,1,2016-07-14T18:40:00Z,59.9204261842,tryagainsim,enthusiast,9.74329996109,0,4.05394506454,1,1,Closea1.,A,CloseA,enthusiast 0
b_5,7,Paintings/MonA2.jpeg,0,14,14,in a year,1.6356010437,7,0,9,9,3,2.841,7,0,14,14,5,4.414,1,"[0.4, 0]","[-0.4, 0]",Paintings/MonA2new.jpeg,0,12,12,5,11.413,1,Mondrian,indeterminate,1,2016-07-14T18:40:00Z,59.9204261842,tryagainsim,enthusiast,9.74329996109,0,4.05394506454,1,2,MonA2.,A,MondrianA,enthusiast 0
b_5,15,Paintings/Rothkoa1.jpeg,0,15,15,tomorrow,1.69876694679,15,0,5,5,6,4.414,15,0,1,1,2,7.953,NA,NA,NA,NA,NA,NA,NA,NA,NA,NA,Rothko,concrete,1,2016-07-14T18:40:00Z,59.9204261842,tryagainsim,enthusiast,9.74329996109,0,4.05394506454,0,1,Rothkoa1.,A,RothkoA,enthusiast 0
b_5,14,Paintings/Closea3.jpeg,0,16,16,tomorrow,3.06077885628,14,0,0,0,4,11.612,14,0,20,20,6,2.413,13,"[0.4, 0]","[-0.4, 0]",Paintings/Closea2new.jpeg,0,10,10,5,8.882,13,Close,abstract,1,2016-07-14T18:40:00Z,59.9204261842,tryagainsim,enthusiast,9.74329996109,0,4.05394506454,0,3,Closea3.,A,CloseA,enthusiast 0
b_5,17,Paintings/Rothkoa3.jpeg,0,17,17,tomorrow,3.16737604141,17,0,18,18,4,2.941,17,0,10,10,7,3.407,7,"[0.4, 0]","[-0.4, 0]",Paintings/Rothkoa3new.jpeg,0,5,5,6,3.179,7,Rothko,abstract,1,2016-07-14T18:40:00Z,59.9204261842,tryagainsim,enthusiast,9.74329996109,0,4.05394506454,0,3,Rothkoa3.,A,RothkoA,enthusiast 0
b_5,10,Paintings/Monb2.jpeg,0,18,18,in a year,2.49764990807,10,0,4,4,5,3.01,10,0,17,17,5,3.103,4,"[0.4, 0]","[-0.4, 0]",Paintings/Monb2new.jpeg,0,1,1,4,16.095,4,Mondrian,indeterminate,1,2016-07-14T18:40:00Z,59.9204261842,tryagainsim,enthusiast,9.74329996109,0,4.05394506454,1,2,Monb2.,B,MondrianB,enthusiast 0
b_5,4,Paintings/Clifa2.jpeg,0,19,19,tomorrow,5.49293804169,4,0,10,10,3,4.91,4,0,13,13,6,4.854,NA,NA,NA,NA,NA,NA,NA,NA,NA,NA,Still,indeterminate,1,2016-07-14T18:40:00Z,59.9204261842,tryagainsim,enthusiast,9.74329996109,0,4.05394506454,0,2,Clifa2.,A,StillA,enthusiast 0
b_5,6,Paintings/MonA1.jpeg,0,20,20,tomorrow,1.59306097031,6,0,13,13,7,1.937,6,0,2,2,2,3.87,0,"[0.4, 0]","[-0.4, 0]",Paintings/MonA1new.jpeg,0,2,2,1,12.814,0,Mondrian,concrete,1,2016-07-14T18:40:00Z,59.9204261842,tryagainsim,enthusiast,9.74329996109,0,4.05394506454,0,1,MonA1.,A,MondrianA,enthusiast 0
b_6,14,Paintings/Closea3.jpeg,0,0,0,tomorrow,9.77194690704,14,0,4,4,2,3.246,14,0,19,19,7,3.013,13,"[0.4, 0]","[-0.4, 0]",Paintings/Closea2new.jpeg,0,10,10,6,3.943,13,Close,abstract,1,2016-07-14T19:13:00Z,59.9211110175,tryagainsim,enthusiast,15.7659318447,1-4,6.18985199928,0,3,Closea3.,A,CloseA,enthusiast 1-4
b_6,10,Paintings/Monb2.jpeg,0,1,1,in a year,3.56281018257,10,0,11,11,6,11.692,10,0,8,8,5,5.008,4,"[0.4, 0]","[-0.4, 0]",Paintings/Monb2new.jpeg,0,8,8,5,3.787,4,Mondrian,indeterminate,1,2016-07-14T19:13:00Z,59.9211110175,tryagainsim,enthusiast,15.7659318447,1-4,6.18985199928,1,2,Monb2.,B,MondrianB,enthusiast 1-4
b_6,11,Paintings/Monb3.jpeg,0,2,2,tomorrow,2.09346795082,11,0,15,15,6,2.535,11,0,10,10,6,2.349,5,"[0.4, 0]","[-0.4, 0]",Paintings/Monb3new.jpeg,0,1,1,5,4.902,5,Mondrian,abstract,1,2016-07-14T19:13:00Z,59.9211110175,tryagainsim,enthusiast,15.7659318447,1-4,6.18985199928,0,3,Monb3.,B,MondrianB,enthusiast 1-4
b_6,13,Paintings/Closea2.jpeg,0,3,3,in a year,1.45981884003,13,0,17,17,2,3.185,13,0,7,7,6,3.535,12,"[0.4, 0]","[-0.4, 0]",Paintings/Closea2new.jpeg,0,7,7,5,4.653,12,Close,indeterminate,1,2016-07-14T19:13:00Z,59.9211110175,tryagainsim,enthusiast,15.7659318447,1-4,6.18985199928,1,2,Closea2.,A,CloseA,enthusiast 1-4
b_6,12,Paintings/Closea1.jpeg,0,4,4,in a year,3.05631399155,12,0,18,18,1,4.238,12,0,11,11,1,4.74,11,"[0.4, 0]","[-0.4, 0]",Paintings/Closea1new.jpeg,0,11,11,6,3.786,11,Close,concrete,1,2016-07-14T19:13:00Z,59.9211110175,tryagainsim,enthusiast,15.7659318447,1-4,6.18985199928,1,1,Closea1.,A,CloseA,enthusiast 1-4
b_6,9,Paintings/Monb1.jpeg,0,5,5,tomorrow,1.16434407234,9,0,3,3,5,4.144,9,0,15,15,1,2.816,3,"[0.4, 0]","[-0.4, 0]",Paintings/Monb1new.jpeg,0,5,5,3,8.713,3,Mondrian,concrete,1,2016-07-14T19:13:00Z,59.9211110175,tryagainsim,enthusiast,15.7659318447,1-4,6.18985199928,0,1,Monb1.,B,MondrianB,enthusiast 1-4
b_6,8,Paintings/MonA3.jpeg,0,6,6,tomorrow,2.56253004074,8,0,0,0,6,33.894,8,0,17,17,6,2.876,2,"[0.4, 0]","[-0.4, 0]",Paintings/MonA3new.jpeg,0,4,4,7,5.45,2,Mondrian,abstract,1,2016-07-14T19:13:00Z,59.9211110175,tryagainsim,enthusiast,15.7659318447,1-4,6.18985199928,0,3,MonA3.,A,MondrianA,enthusiast 1-4
b_6,6,Paintings/MonA1.jpeg,0,7,7,tomorrow,3.794672966,6,0,7,7,5,3.074,6,0,14,14,1,11.636,0,"[0.4, 0]","[-0.4, 0]",Paintings/MonA1new.jpeg,0,3,3,2,8.31,0,Mondrian,concrete,1,2016-07-14T19:13:00Z,59.9211110175,tryagainsim,enthusiast,15.7659318447,1-4,6.18985199928,0,1,MonA1.,A,MondrianA,enthusiast 1-4
b_6,7,Paintings/MonA2.jpeg,0,8,8,tomorrow,1.16806316376,7,0,14,14,6,3.483,7,0,13,13,6,25.262,1,"[0.4, 0]","[-0.4, 0]",Paintings/MonA2new.jpeg,0,0,0,5,16.484,1,Mondrian,indeterminate,1,2016-07-14T19:13:00Z,59.9211110175,tryagainsim,enthusiast,15.7659318447,1-4,6.18985199928,0,2,MonA2.,A,MondrianA,enthusiast 1-4
b_6,0,Paintings/Clifb1.jpeg,0,9,9,in a year,1.22989201546,0,0,1,1,5,4.38,0,0,6,6,1,2.608,NA,NA,NA,NA,NA,NA,NA,NA,NA,NA,Still,concrete,1,2016-07-14T19:13:00Z,59.9211110175,tryagainsim,enthusiast,15.7659318447,1-4,6.18985199928,1,1,Clifb1.,B,StillB,enthusiast 1-4
b_6,19,Paintings/Rothkob2.jpeg,0,10,10,in a year,1.26174998283,19,0,6,6,5,4.014,19,0,5,5,4,4.714,9,"[0.4, 0]","[-0.4, 0]",Paintings/Rothkob3new2.jpeg,0,12,12,4,3.573,9,Rothko,indeterminate,1,2016-07-14T19:13:00Z,59.9211110175,tryagainsim,enthusiast,15.7659318447,1-4,6.18985199928,1,2,Rothkob2.,B,RothkoB,enthusiast 1-4
b_6,16,Paintings/Rothkoa2.jpeg,0,11,11,in a year,2.85658407211,16,0,2,2,5,9.145,16,0,4,4,5,4.884,6,"[0.4, 0]","[-0.4, 0]",Paintings/Rothkoa2new.jpeg,0,9,9,5,22.289,6,Rothko,indeterminate,1,2016-07-14T19:13:00Z,59.9211110175,tryagainsim,enthusiast,15.7659318447,1-4,6.18985199928,1,2,Rothkoa2.,A,RothkoA,enthusiast 1-4
b_6,2,Paintings/Clifb3.jpeg,0,12,12,tomorrow,2.10397601128,2,0,9,9,2,2.606,2,0,1,1,7,3.74,NA,NA,NA,NA,NA,NA,NA,NA,NA,NA,Still,abstract,1,2016-07-14T19:13:00Z,59.9211110175,tryagainsim,enthusiast,15.7659318447,1-4,6.18985199928,0,3,Clifb3.,B,StillB,enthusiast 1-4
b_6,1,Paintings/Clifb2.jpeg,0,13,13,in a year,2.43121600151,1,0,10,10,4,3.115,1,0,0,0,4,4.384,NA,NA,NA,NA,NA,NA,NA,NA,NA,NA,Still,indeterminate,1,2016-07-14T19:13:00Z,59.9211110175,tryagainsim,enthusiast,15.7659318447,1-4,6.18985199928,1,2,Clifb2.,B,StillB,enthusiast 1-4
b_6,20,Paintings/Rothkob3.jpeg,0,14,14,in a year,3.90458893776,20,0,12,12,2,3.336,20,0,12,12,7,2.669,10,"[0.4, 0]","[-0.4, 0]",Paintings/Rothkob2new3.jpeg,0,13,13,6,3.872,10,Rothko,abstract,1,2016-07-14T19:13:00Z,59.9211110175,tryagainsim,enthusiast,15.7659318447,1-4,6.18985199928,1,3,Rothkob3.,B,RothkoB,enthusiast 1-4
b_6,18,Paintings/Rothkob1.jpeg,0,15,15,tomorrow,2.09650397301,18,0,16,16,5,2.812,18,0,2,2,3,3.547,8,"[0.4, 0]","[-0.4, 0]",Paintings/Rothkob1new.jpeg,0,6,6,6,5.208,8,Rothko,concrete,1,2016-07-14T19:13:00Z,59.9211110175,tryagainsim,enthusiast,15.7659318447,1-4,6.18985199928,0,1,Rothkob1.,B,RothkoB,enthusiast 1-4
b_6,15,Paintings/Rothkoa1.jpeg,0,16,16,tomorrow,7.5363368988,15,0,19,19,5,8.083,15,0,20,20,2,2.768,NA,NA,NA,NA,NA,NA,NA,NA,NA,NA,Rothko,concrete,1,2016-07-14T19:13:00Z,59.9211110175,tryagainsim,enthusiast,15.7659318447,1-4,6.18985199928,0,1,Rothkoa1.,A,RothkoA,enthusiast 1-4
b_6,3,Paintings/Clifa1.jpeg,0,17,17,tomorrow,5.83515000343,3,0,13,13,4,7.483,3,0,18,18,1,3.382,NA,NA,NA,NA,NA,NA,NA,NA,NA,NA,Still,concrete,1,2016-07-14T19:13:00Z,59.9211110175,tryagainsim,enthusiast,15.7659318447,1-4,6.18985199928,0,1,Clifa1.,A,StillA,enthusiast 1-4
b_6,17,Paintings/Rothkoa3.jpeg,0,18,18,in a year,2.8967859745,17,0,8,8,2,3.913,17,0,9,9,6,3.143,7,"[0.4, 0]","[-0.4, 0]",Paintings/Rothkoa3new.jpeg,0,2,2,4,8.756,7,Rothko,abstract,1,2016-07-14T19:13:00Z,59.9211110175,tryagainsim,enthusiast,15.7659318447,1-4,6.18985199928,1,3,Rothkoa3.,A,RothkoA,enthusiast 1-4
b_6,5,Paintings/Clifa3.jpeg,0,19,19,in a year,2.16551804543,5,0,5,5,3,3.47,5,0,16,16,6,3.738,NA,NA,NA,NA,NA,NA,NA,NA,NA,NA,Still,abstract,1,2016-07-14T19:13:00Z,59.9211110175,tryagainsim,enthusiast,15.7659318447,1-4,6.18985199928,1,3,Clifa3.,A,StillA,enthusiast 1-4
b_6,4,Paintings/Clifa2.jpeg,0,20,20,in a year,2.42448401451,4,0,20,20,5,8.656,4,0,3,3,5,2.544,NA,NA,NA,NA,NA,NA,NA,NA,NA,NA,Still,indeterminate,1,2016-07-14T19:13:00Z,59.9211110175,tryagainsim,enthusiast,15.7659318447,1-4,6.18985199928,1,2,Clifa2.,A,StillA,enthusiast 1-4
b_7,6,Paintings/MonA1.jpeg,0,0,0,in a year,27.8519878387,6,0,9,9,7,2.474,6,0,19,19,4,2.301,0,"[0.4, 0]","[-0.4, 0]",Paintings/MonA1new.jpeg,0,3,3,2,9.508,0,Mondrian,concrete,1,2016-07-20T16:01:00Z,59.9383225917,tryagainsim,enthusiast,19.1694910526,0,6.957020998,1,1,MonA1.,A,MondrianA,enthusiast 0
b_7,11,Paintings/Monb3.jpeg,0,1,1,in a year,6.39618206024,11,0,2,2,4,11.117,11,0,11,11,7,26.703,5,"[0.4, 0]","[-0.4, 0]",Paintings/Monb3new.jpeg,0,2,2,5,5.613,5,Mondrian,abstract,1,2016-07-20T16:01:00Z,59.9383225917,tryagainsim,enthusiast,19.1694910526,0,6.957020998,1,3,Monb3.,B,MondrianB,enthusiast 0
b_7,7,Paintings/MonA2.jpeg,0,2,2,in a year,4.27100014687,7,0,18,18,5,4.741,7,0,0,0,5,120.072,1,"[0.4, 0]","[-0.4, 0]",Paintings/MonA2new.jpeg,0,7,7,4,8.319,1,Mondrian,indeterminate,1,2016-07-20T16:01:00Z,59.9383225917,tryagainsim,enthusiast,19.1694910526,0,6.957020998,1,2,MonA2.,A,MondrianA,enthusiast 0
b_7,3,Paintings/Clifa1.jpeg,0,3,3,tomorrow,4.20867705345,3,0,16,16,7,4.971,3,0,18,18,4,2.27,NA,NA,NA,NA,NA,NA,NA,NA,NA,NA,Still,concrete,1,2016-07-20T16:01:00Z,59.9383225917,tryagainsim,enthusiast,19.1694910526,0,6.957020998,0,1,Clifa1.,A,StillA,enthusiast 0
b_7,2,Paintings/Clifb3.jpeg,0,4,4,in a year,2.43719387054,2,0,20,20,1,4.644,2,0,9,9,7,1.571,NA,NA,NA,NA,NA,NA,NA,NA,NA,NA,Still,abstract,1,2016-07-20T16:01:00Z,59.9383225917,tryagainsim,enthusiast,19.1694910526,0,6.957020998,1,3,Clifb3.,B,StillB,enthusiast 0
b_7,14,Paintings/Closea3.jpeg,0,5,5,in a year,3.16029286385,14,0,5,5,3,3.146,14,0,12,12,7,1.29,13,"[0.4, 0]","[-0.4, 0]",Paintings/Closea2new.jpeg,0,6,6,5,4.545,13,Close,abstract,1,2016-07-20T16:01:00Z,59.9383225917,tryagainsim,enthusiast,19.1694910526,0,6.957020998,1,3,Closea3.,A,CloseA,enthusiast 0
b_7,8,Paintings/MonA3.jpeg,0,6,6,in a year,1.23031806946,8,0,11,11,6,4.544,8,0,14,14,7,2.278,2,"[0.4, 0]","[-0.4, 0]",Paintings/MonA3new.jpeg,0,11,11,7,2.969,2,Mondrian,abstract,1,2016-07-20T16:01:00Z,59.9383225917,tryagainsim,enthusiast,19.1694910526,0,6.957020998,1,3,MonA3.,A,MondrianA,enthusiast 0
b_7,17,Paintings/Rothkoa3.jpeg,0,7,7,in a year,2.10091710091,17,0,19,19,1,2.08,17,0,8,8,7,1.612,7,"[0.4, 0]","[-0.4, 0]",Paintings/Rothkoa3new.jpeg,0,12,12,5,4.606,7,Rothko,abstract,1,2016-07-20T16:01:00Z,59.9383225917,tryagainsim,enthusiast,19.1694910526,0,6.957020998,1,3,Rothkoa3.,A,RothkoA,enthusiast 0
b_7,19,Paintings/Rothkob2.jpeg,0,8,8,in a year,2.93805813789,19,0,8,8,5,5.773,19,0,16,16,7,1.814,9,"[0.4, 0]","[-0.4, 0]",Paintings/Rothkob3new2.jpeg,0,0,0,1,10.172,9,Rothko,indeterminate,1,2016-07-20T16:01:00Z,59.9383225917,tryagainsim,enthusiast,19.1694910526,0,6.957020998,1,2,Rothkob2.,B,RothkoB,enthusiast 0
b_7,9,Paintings/Monb1.jpeg,0,9,9,in a year,5.4310939312,9,0,6,6,6,6.575,9,0,5,5,5,1.507,3,"[0.4, 0]","[-0.4, 0]",Paintings/Monb1new.jpeg,0,1,1,4,5.812,3,Mondrian,concrete,1,2016-07-20T16:01:00Z,59.9383225917,tryagainsim,enthusiast,19.1694910526,0,6.957020998,1,1,Monb1.,B,MondrianB,enthusiast 0
b_7,20,Paintings/Rothkob3.jpeg,0,10,10,in a year,1.16666603088,20,0,10,10,4,5.576,20,0,6,6,7,1.436,10,"[0.4, 0]","[-0.4, 0]",Paintings/Rothkob2new3.jpeg,0,13,13,6,2.277,10,Rothko,abstract,1,2016-07-20T16:01:00Z,59.9383225917,tryagainsim,enthusiast,19.1694910526,0,6.957020998,1,3,Rothkob3.,B,RothkoB,enthusiast 0
b_7,4,Paintings/Clifa2.jpeg,0,11,11,in a year,3.30710506439,4,0,14,14,1,2.308,4,0,15,15,4,3.479,NA,NA,NA,NA,NA,NA,NA,NA,NA,NA,Still,indeterminate,1,2016-07-20T16:01:00Z,59.9383225917,tryagainsim,enthusiast,19.1694910526,0,6.957020998,1,2,Clifa2.,A,StillA,enthusiast 0
b_7,0,Paintings/Clifb1.jpeg,0,12,12,in a year,1.85872507095,0,0,3,3,5,4.719,0,0,2,2,4,3.577,NA,NA,NA,NA,NA,NA,NA,NA,NA,NA,Still,concrete,1,2016-07-20T16:01:00Z,59.9383225917,tryagainsim,enthusiast,19.1694910526,0,6.957020998,1,1,Clifb1.,B,StillB,enthusiast 0
b_7,18,Paintings/Rothkob1.jpeg,0,13,13,in a year,2.89303898811,18,0,7,7,4,5.954,18,0,7,7,5,3.142,8,"[0.4, 0]","[-0.4, 0]",Paintings/Rothkob1new.jpeg,0,8,8,6,6.092,8,Rothko,concrete,1,2016-07-20T16:01:00Z,59.9383225917,tryagainsim,enthusiast,19.1694910526,0,6.957020998,1,1,Rothkob1.,B,RothkoB,enthusiast 0
b_7,10,Paintings/Monb2.jpeg,0,14,14,in a year,5.50645112991,10,0,15,15,1,2.915,10,0,20,20,4,1.44,4,"[0.4, 0]","[-0.4, 0]",Paintings/Monb2new.jpeg,0,4,4,4,8.672,4,Mondrian,indeterminate,1,2016-07-20T16:01:00Z,59.9383225917,tryagainsim,enthusiast,19.1694910526,0,6.957020998,1,2,Monb2.,B,MondrianB,enthusiast 0
b_7,13,Paintings/Closea2.jpeg,0,15,15,in a year,6.9418399334,13,0,17,17,4,7.983,13,0,17,17,7,1.433,12,"[0.4, 0]","[-0.4, 0]",Paintings/Closea2new.jpeg,0,10,10,4,5.708,12,Close,indeterminate,1,2016-07-20T16:01:00Z,59.9383225917,tryagainsim,enthusiast,19.1694910526,0,6.957020998,1,2,Closea2.,A,CloseA,enthusiast 0
b_7,15,Paintings/Rothkoa1.jpeg,0,16,16,in a year,1.75914406776,15,0,1,1,4,13.514,15,0,1,1,4,3.768,NA,NA,NA,NA,NA,NA,NA,NA,NA,NA,Rothko,concrete,1,2016-07-20T16:01:00Z,59.9383225917,tryagainsim,enthusiast,19.1694910526,0,6.957020998,1,1,Rothkoa1.,A,RothkoA,enthusiast 0
b_7,16,Paintings/Rothkoa2.jpeg,0,17,17,in a year,2.03763484955,16,0,12,12,4,5.046,16,0,3,3,7,2.638,6,"[0.4, 0]","[-0.4, 0]",Paintings/Rothkoa2new.jpeg,0,9,9,6,3.771,6,Rothko,indeterminate,1,2016-07-20T16:01:00Z,59.9383225917,tryagainsim,enthusiast,19.1694910526,0,6.957020998,1,2,Rothkoa2.,A,RothkoA,enthusiast 0
b_7,1,Paintings/Clifb2.jpeg,0,18,18,in a year,12.8056638241,1,0,13,13,1,2.749,1,0,13,13,4,3.386,NA,NA,NA,NA,NA,NA,NA,NA,NA,NA,Still,indeterminate,1,2016-07-20T16:01:00Z,59.9383225917,tryagainsim,enthusiast,19.1694910526,0,6.957020998,1,2,Clifb2.,B,StillB,enthusiast 0
b_7,12,Paintings/Closea1.jpeg,0,19,19,in a year,5.2268679142,12,0,0,0,7,29.356,12,0,10,10,4,4.905,11,"[0.4, 0]","[-0.4, 0]",Paintings/Closea1new.jpeg,0,5,5,5,7.253,11,Close,concrete,1,2016-07-20T16:01:00Z,59.9383225917,tryagainsim,enthusiast,19.1694910526,0,6.957020998,1,1,Closea1.,A,CloseA,enthusiast 0
b_7,5,Paintings/Clifa3.jpeg,0,20,20,in a year,2.09021306038,5,0,4,4,4,16.162,5,0,4,4,7,1.281,NA,NA,NA,NA,NA,NA,NA,NA,NA,NA,Still,abstract,1,2016-07-20T16:01:00Z,59.9383225917,tryagainsim,enthusiast,19.1694910526,0,6.957020998,1,3,Clifa3.,A,StillA,enthusiast 0
b_8,14,Paintings/Closea3.jpeg,0,0,0,tomorrow,6.10803604126,14,0,20,20,2,1.879,14,0,7,7,7,3.216,13,"[0.4, 0]","[-0.4, 0]",Paintings/Closea2new.jpeg,0,6,6,2,2.172,13,Close,abstract,1,2016-07-21T18:32:00Z,59.9408923314,tryagainsim,novice,3.93715596199,0,6.90689110756,0,3,Closea3.,A,CloseA,novice 0
b_8,4,Paintings/Clifa2.jpeg,0,1,1,tomorrow,2.70206904411,4,0,14,14,4,2.012,4,0,15,15,5,3.079,NA,NA,NA,NA,NA,NA,NA,NA,NA,NA,Still,indeterminate,1,2016-07-21T18:32:00Z,59.9408923314,tryagainsim,novice,3.93715596199,0,6.90689110756,0,2,Clifa2.,A,StillA,novice 0
b_8,0,Paintings/Clifb1.jpeg,0,2,2,tomorrow,0.767060995102,0,0,12,12,6,1.779,0,0,6,6,1,2.009,NA,NA,NA,NA,NA,NA,NA,NA,NA,NA,Still,concrete,1,2016-07-21T18:32:00Z,59.9408923314,tryagainsim,novice,3.93715596199,0,6.90689110756,0,1,Clifb1.,B,StillB,novice 0
b_8,3,Paintings/Clifa1.jpeg,0,3,3,tomorrow,0.590003013611,3,0,10,10,6,2.416,3,0,14,14,1,1.749,NA,NA,NA,NA,NA,NA,NA,NA,NA,NA,Still,concrete,1,2016-07-21T18:32:00Z,59.9408923314,tryagainsim,novice,3.93715596199,0,6.90689110756,0,1,Clifa1.,A,StillA,novice 0
b_8,6,Paintings/MonA1.jpeg,0,4,4,tomorrow,0.955395936966,6,0,16,16,7,4.049,6,0,9,9,3,2.103,0,"[0.4, 0]","[-0.4, 0]",Paintings/MonA1new.jpeg,0,9,9,1,3.217,0,Mondrian,concrete,1,2016-07-21T18:32:00Z,59.9408923314,tryagainsim,novice,3.93715596199,0,6.90689110756,0,1,MonA1.,A,MondrianA,novice 0
b_8,13,Paintings/Closea2.jpeg,0,5,5,tomorrow,0.632652044296,13,0,4,4,2,1.979,13,0,4,4,7,2.605,12,"[0.4, 0]","[-0.4, 0]",Paintings/Closea2new.jpeg,0,5,5,2,2.507,12,Close,indeterminate,1,2016-07-21T18:32:00Z,59.9408923314,tryagainsim,novice,3.93715596199,0,6.90689110756,0,2,Closea2.,A,CloseA,novice 0
b_8,10,Paintings/Monb2.jpeg,0,6,6,tomorrow,1.5240008831,10,0,3,3,6,1.94,10,0,0,0,6,2.819,4,"[0.4, 0]","[-0.4, 0]",Paintings/Monb2new.jpeg,0,11,11,2,2.212,4,Mondrian,indeterminate,1,2016-07-21T18:32:00Z,59.9408923314,tryagainsim,novice,3.93715596199,0,6.90689110756,0,2,Monb2.,B,MondrianB,novice 0
b_8,1,Paintings/Clifb2.jpeg,0,7,7,in a year,1.8003950119,1,0,9,9,4,3.473,1,0,3,3,5,2.411,NA,NA,NA,NA,NA,NA,NA,NA,NA,NA,Still,indeterminate,1,2016-07-21T18:32:00Z,59.9408923314,tryagainsim,novice,3.93715596199,0,6.90689110756,1,2,Clifb2.,B,StillB,novice 0
b_8,9,Paintings/Monb1.jpeg,0,8,8,tomorrow,2.16841197014,9,0,5,5,2,2.004,9,0,17,17,1,1.844,3,"[0.4, 0]","[-0.4, 0]",Paintings/Monb1new.jpeg,0,10,10,1,1.876,3,Mondrian,concrete,1,2016-07-21T18:32:00Z,59.9408923314,tryagainsim,novice,3.93715596199,0,6.90689110756,0,1,Monb1.,B,MondrianB,novice 0
b_8,7,Paintings/MonA2.jpeg,0,9,9,tomorrow,0.92233300209,7,0,18,18,5,4.047,7,0,18,18,6,1.678,1,"[0.4, 0]","[-0.4, 0]",Paintings/MonA2new.jpeg,0,12,12,5,3.908,1,Mondrian,indeterminate,1,2016-07-21T18:32:00Z,59.9408923314,tryagainsim,novice,3.93715596199,0,6.90689110756,0,2,MonA2.,A,MondrianA,novice 0
b_8,11,Paintings/Monb3.jpeg,0,10,10,tomorrow,0.531962156296,11,0,13,13,6,2.313,11,0,1,1,6,1.908,5,"[0.4, 0]","[-0.4, 0]",Paintings/Monb3new.jpeg,0,2,2,7,1.735,5,Mondrian,abstract,1,2016-07-21T18:32:00Z,59.9408923314,tryagainsim,novice,3.93715596199,0,6.90689110756,0,3,Monb3.,B,MondrianB,novice 0
b_8,5,Paintings/Clifa3.jpeg,0,11,11,in a year,1.02313685417,5,0,11,11,6,3.412,5,0,5,5,7,1.947,NA,NA,NA,NA,NA,NA,NA,NA,NA,NA,Still,abstract,1,2016-07-21T18:32:00Z,59.9408923314,tryagainsim,novice,3.93715596199,0,6.90689110756,1,3,Clifa3.,A,StillA,novice 0
b_8,16,Paintings/Rothkoa2.jpeg,0,12,12,in a year,0.734946012497,16,0,19,19,6,2.237,16,0,13,13,7,1.836,6,"[0.4, 0]","[-0.4, 0]",Paintings/Rothkoa2new.jpeg,0,13,13,6,2.276,6,Rothko,indeterminate,1,2016-07-21T18:32:00Z,59.9408923314,tryagainsim,novice,3.93715596199,0,6.90689110756,1,2,Rothkoa2.,A,RothkoA,novice 0
b_8,8,Paintings/MonA3.jpeg,0,13,13,tomorrow,0.787833929062,8,0,0,0,5,5.987,8,0,12,12,6,1.814,2,"[0.4, 0]","[-0.4, 0]",Paintings/MonA3new.jpeg,0,1,1,7,2.17,2,Mondrian,abstract,1,2016-07-21T18:32:00Z,59.9408923314,tryagainsim,novice,3.93715596199,0,6.90689110756,0,3,MonA3.,A,MondrianA,novice 0
b_8,20,Paintings/Rothkob3.jpeg,0,14,14,in a year,0.723051071167,20,0,17,17,3,2.206,20,0,2,2,7,1.936,10,"[0.4, 0]","[-0.4, 0]",Paintings/Rothkob2new3.jpeg,0,7,7,6,2.004,10,Rothko,abstract,1,2016-07-21T18:32:00Z,59.9408923314,tryagainsim,novice,3.93715596199,0,6.90689110756,1,3,Rothkob3.,B,RothkoB,novice 0
b_8,2,Paintings/Clifb3.jpeg,0,15,15,in a year,0.669128894806,2,0,15,15,6,1.743,2,0,19,19,7,2.847,NA,NA,NA,NA,NA,NA,NA,NA,NA,NA,Still,abstract,1,2016-07-21T18:32:00Z,59.9408923314,tryagainsim,novice,3.93715596199,0,6.90689110756,1,3,Clifb3.,B,StillB,novice 0
b_8,18,Paintings/Rothkob1.jpeg,0,16,16,tomorrow,0.701847076416,18,0,8,8,4,2.646,18,0,11,11,2,2.039,8,"[0.4, 0]","[-0.4, 0]",Paintings/Rothkob1new.jpeg,0,0,0,6,4.374,8,Rothko,concrete,1,2016-07-21T18:32:00Z,59.9408923314,tryagainsim,novice,3.93715596199,0,6.90689110756,0,1,Rothkob1.,B,RothkoB,novice 0
b_8,12,Paintings/Closea1.jpeg,0,17,17,tomorrow,1.19685292244,12,0,2,2,6,2.842,12,0,10,10,1,1.877,11,"[0.4, 0]","[-0.4, 0]",Paintings/Closea1new.jpeg,0,3,3,5,4.872,11,Close,concrete,1,2016-07-21T18:32:00Z,59.9408923314,tryagainsim,novice,3.93715596199,0,6.90689110756,0,1,Closea1.,A,CloseA,novice 0
b_8,19,Paintings/Rothkob2.jpeg,0,18,18,in a year,1.29385590553,19,0,6,6,7,2.266,19,0,8,8,5,2.135,9,"[0.4, 0]","[-0.4, 0]",Paintings/Rothkob3new2.jpeg,0,8,8,4,3.643,9,Rothko,indeterminate,1,2016-07-21T18:32:00Z,59.9408923314,tryagainsim,novice,3.93715596199,0,6.90689110756,1,2,Rothkob2.,B,RothkoB,novice 0
b_8,17,Paintings/Rothkoa3.jpeg,0,19,19,in a year,0.623767137527,17,0,7,7,7,1.771,17,0,20,20,7,1.44,7,"[0.4, 0]","[-0.4, 0]",Paintings/Rothkoa3new.jpeg,0,4,4,5,2.107,7,Rothko,abstract,1,2016-07-21T18:32:00Z,59.9408923314,tryagainsim,novice,3.93715596199,0,6.90689110756,1,3,Rothkoa3.,A,RothkoA,novice 0
b_8,15,Paintings/Rothkoa1.jpeg,0,20,20,in a year,0.625079870224,15,0,1,1,1,2.499,15,0,16,16,1,1.947,NA,NA,NA,NA,NA,NA,NA,NA,NA,NA,Rothko,concrete,1,2016-07-21T18:32:00Z,59.9408923314,tryagainsim,novice,3.93715596199,0,6.90689110756,1,1,Rothkoa1.,A,RothkoA,novice 0
b_9,16,Paintings/Rothkoa2.jpeg,0,0,0,in a year,10.9721231461,16,0,4,4,7,2.705,16,0,2,2,7,3.319,6,"[0.4, 0]","[-0.4, 0]",Paintings/Rothkoa2new.jpeg,0,9,9,6,5.009,6,Rothko,indeterminate,1,2016-07-21T19:05:00Z,59.9171734401,tryagainsim,enthusiast,11.4616680145,1-4,4.02059102058,1,2,Rothkoa2.,A,RothkoA,enthusiast 1-4
b_9,13,Paintings/Closea2.jpeg,0,1,1,in a year,6.27343201637,13,0,10,10,3,1.934,13,0,8,8,6,4.847,12,"[0.4, 0]","[-0.4, 0]",Paintings/Closea2new.jpeg,0,1,1,4,8.676,12,Close,indeterminate,1,2016-07-21T19:05:00Z,59.9171734401,tryagainsim,enthusiast,11.4616680145,1-4,4.02059102058,1,2,Closea2.,A,CloseA,enthusiast 1-4
b_9,0,Paintings/Clifb1.jpeg,0,2,2,tomorrow,1.40103697777,0,0,11,11,3,2.719,0,0,4,4,2,2.613,NA,NA,NA,NA,NA,NA,NA,NA,NA,NA,Still,concrete,1,2016-07-21T19:05:00Z,59.9171734401,tryagainsim,enthusiast,11.4616680145,1-4,4.02059102058,0,1,Clifb1.,B,StillB,enthusiast 1-4
b_9,4,Paintings/Clifa2.jpeg,0,3,3,tomorrow,2.92905592918,4,0,15,15,5,4.512,4,0,0,0,5,6.92,NA,NA,NA,NA,NA,NA,NA,NA,NA,NA,Still,indeterminate,1,2016-07-21T19:05:00Z,59.9171734401,tryagainsim,enthusiast,11.4616680145,1-4,4.02059102058,0,2,Clifa2.,A,StillA,enthusiast 1-4
b_9,2,Paintings/Clifb3.jpeg,0,4,4,tomorrow,2.13295912743,2,0,2,2,3,2.679,2,0,6,6,7,4.678,NA,NA,NA,NA,NA,NA,NA,NA,NA,NA,Still,abstract,1,2016-07-21T19:05:00Z,59.9171734401,tryagainsim,enthusiast,11.4616680145,1-4,4.02059102058,0,3,Clifb3.,B,StillB,enthusiast 1-4
b_9,17,Paintings/Rothkoa3.jpeg,0,5,5,tomorrow,1.29091787338,17,0,20,20,4,1.913,17,0,13,13,7,3.114,7,"[0.4, 0]","[-0.4, 0]",Paintings/Rothkoa3new.jpeg,0,7,7,5,4.749,7,Rothko,abstract,1,2016-07-21T19:05:00Z,59.9171734401,tryagainsim,enthusiast,11.4616680145,1-4,4.02059102058,0,3,Rothkoa3.,A,RothkoA,enthusiast 1-4
b_9,18,Paintings/Rothkob1.jpeg,0,6,6,tomorrow,5.56910991669,18,0,8,8,4,2.147,18,0,16,16,3,7.353,8,"[0.4, 0]","[-0.4, 0]",Paintings/Rothkob1new.jpeg,0,13,13,6,5.95,8,Rothko,concrete,1,2016-07-21T19:05:00Z,59.9171734401,tryagainsim,enthusiast,11.4616680145,1-4,4.02059102058,0,1,Rothkob1.,B,RothkoB,enthusiast 1-4
b_9,3,Paintings/Clifa1.jpeg,0,7,7,tomorrow,4.00532698631,3,0,13,13,5,2.603,3,0,12,12,1,2.139,NA,NA,NA,NA,NA,NA,NA,NA,NA,NA,Still,concrete,1,2016-07-21T19:05:00Z,59.9171734401,tryagainsim,enthusiast,11.4616680145,1-4,4.02059102058,0,1,Clifa1.,A,StillA,enthusiast 1-4
b_9,8,Paintings/MonA3.jpeg,0,8,8,in a year,1.72713017464,8,0,0,0,4,10.678,8,0,10,10,6,2.849,2,"[0.4, 0]","[-0.4, 0]",Paintings/MonA3new.jpeg,0,12,12,7,2.412,2,Mondrian,abstract,1,2016-07-21T19:05:00Z,59.9171734401,tryagainsim,enthusiast,11.4616680145,1-4,4.02059102058,1,3,MonA3.,A,MondrianA,enthusiast 1-4
b_9,7,Paintings/MonA2.jpeg,0,9,9,in a year,2.15693378448,7,0,3,3,4,2.301,7,0,9,9,5,4.104,1,"[0.4, 0]","[-0.4, 0]",Paintings/MonA2new.jpeg,0,3,3,5,14.56,1,Mondrian,indeterminate,1,2016-07-21T19:05:00Z,59.9171734401,tryagainsim,enthusiast,11.4616680145,1-4,4.02059102058,1,2,MonA2.,A,MondrianA,enthusiast 1-4
b_9,10,Paintings/Monb2.jpeg,0,10,10,tomorrow,1.70292592049,10,0,12,12,4,2.282,10,0,1,1,6,2.502,4,"[0.4, 0]","[-0.4, 0]",Paintings/Monb2new.jpeg,0,11,11,6,3.078,4,Mondrian,indeterminate,1,2016-07-21T19:05:00Z,59.9171734401,tryagainsim,enthusiast,11.4616680145,1-4,4.02059102058,0,2,Monb2.,B,MondrianB,enthusiast 1-4
b_9,11,Paintings/Monb3.jpeg,0,11,11,tomorrow,3.83190894127,11,0,18,18,4,4.247,11,0,18,18,5,3.417,5,"[0.4, 0]","[-0.4, 0]",Paintings/Monb3new.jpeg,0,8,8,5,4.375,5,Mondrian,abstract,1,2016-07-21T19:05:00Z,59.9171734401,tryagainsim,enthusiast,11.4616680145,1-4,4.02059102058,0,3,Monb3.,B,MondrianB,enthusiast 1-4
b_9,19,Paintings/Rothkob2.jpeg,0,12,12,in a year,1.1626868248,19,0,7,7,7,2.334,19,0,20,20,6,4.114,9,"[0.4, 0]","[-0.4, 0]",Paintings/Rothkob3new2.jpeg,0,10,10,4,4.708,9,Rothko,indeterminate,1,2016-07-21T19:05:00Z,59.9171734401,tryagainsim,enthusiast,11.4616680145,1-4,4.02059102058,1,2,Rothkob2.,B,RothkoB,enthusiast 1-4
b_9,20,Paintings/Rothkob3.jpeg,0,13,13,in a year,1.13084602356,20,0,5,5,6,3.301,20,0,19,19,7,4.003,10,"[0.4, 0]","[-0.4, 0]",Paintings/Rothkob2new3.jpeg,0,5,5,5,3.779,10,Rothko,abstract,1,2016-07-21T19:05:00Z,59.9171734401,tryagainsim,enthusiast,11.4616680145,1-4,4.02059102058,1,3,Rothkob3.,B,RothkoB,enthusiast 1-4
b_9,5,Paintings/Clifa3.jpeg,0,14,14,in a year,1.96551084518,5,0,16,16,3,3.207,5,0,15,15,6,2.202,NA,NA,NA,NA,NA,NA,NA,NA,NA,NA,Still,abstract,1,2016-07-21T19:05:00Z,59.9171734401,tryagainsim,enthusiast,11.4616680145,1-4,4.02059102058,1,3,Clifa3.,A,StillA,enthusiast 1-4
b_9,15,Paintings/Rothkoa1.jpeg,0,15,15,tomorrow,0.862827062607,15,0,9,9,3,2.332,15,0,5,5,1,2.713,NA,NA,NA,NA,NA,NA,NA,NA,NA,NA,Rothko,concrete,1,2016-07-21T19:05:00Z,59.9171734401,tryagainsim,enthusiast,11.4616680145,1-4,4.02059102058,0,1,Rothkoa1.,A,RothkoA,enthusiast 1-4
b_9,14,Paintings/Closea3.jpeg,0,16,16,in a year,1.89722704887,14,0,19,19,4,3.982,14,0,11,11,7,5.018,13,"[0.4, 0]","[-0.4, 0]",Paintings/Closea2new.jpeg,0,4,4,6,5.447,13,Close,abstract,1,2016-07-21T19:05:00Z,59.9171734401,tryagainsim,enthusiast,11.4616680145,1-4,4.02059102058,1,3,Closea3.,A,CloseA,enthusiast 1-4
b_9,1,Paintings/Clifb2.jpeg,0,17,17,in a year,5.35969209671,1,0,1,1,6,4.873,1,0,3,3,4,5.788,NA,NA,NA,NA,NA,NA,NA,NA,NA,NA,Still,indeterminate,1,2016-07-21T19:05:00Z,59.9171734401,tryagainsim,enthusiast,11.4616680145,1-4,4.02059102058,1,2,Clifb2.,B,StillB,enthusiast 1-4
b_9,12,Paintings/Closea1.jpeg,0,18,18,tomorrow,1.39584493637,12,0,17,17,6,3.977,12,0,17,17,1,2.41,11,"[0.4, 0]","[-0.4, 0]",Paintings/Closea1new.jpeg,0,0,0,6,9.954,11,Close,concrete,1,2016-07-21T19:05:00Z,59.9171734401,tryagainsim,enthusiast,11.4616680145,1-4,4.02059102058,0,1,Closea1.,A,CloseA,enthusiast 1-4
b_9,9,Paintings/Monb1.jpeg,0,19,19,tomorrow,1.60113310814,9,0,6,6,4,3.048,9,0,14,14,1,3.508,3,"[0.4, 0]","[-0.4, 0]",Paintings/Monb1new.jpeg,0,2,2,3,4.776,3,Mondrian,concrete,1,2016-07-21T19:05:00Z,59.9171734401,tryagainsim,enthusiast,11.4616680145,1-4,4.02059102058,0,1,Monb1.,B,MondrianB,enthusiast 1-4
b_9,6,Paintings/MonA1.jpeg,0,20,20,in a year,1.49457097054,6,0,14,14,6,2.648,6,0,7,7,3,6.345,0,"[0.4, 0]","[-0.4, 0]",Paintings/MonA1new.jpeg,0,6,6,2,5.339,0,Mondrian,concrete,1,2016-07-21T19:05:00Z,59.9171734401,tryagainsim,enthusiast,11.4616680145,1-4,4.02059102058,1,1,MonA1.,A,MondrianA,enthusiast 1-4
b_10,14,Paintings/Closea3.jpeg,0,0,0,tomorrow,9.37210583687,14,0,0,0,4,9.375,14,0,1,1,5,4.448,13,"[0.4, 0]","[-0.4, 0]",Paintings/Closea2new.jpeg,0,2,2,3,9.158,13,Close,abstract,1,2016-07-22T15:07:00Z,59.9660874464,tryagainsim,art historian,15.9997179508,1-4,18.6188540459,0,3,Closea3.,A,CloseA,art historian 1-4
b_10,18,Paintings/Rothkob1.jpeg,0,1,1,tomorrow,7.13060712814,18,0,2,2,3,5.908,18,0,18,18,5,2.703,8,"[0.4, 0]","[-0.4, 0]",Paintings/Rothkob1new.jpeg,0,1,1,6,3.781,8,Rothko,concrete,1,2016-07-22T15:07:00Z,59.9660874464,tryagainsim,art historian,15.9997179508,1-4,18.6188540459,0,1,Rothkob1.,B,RothkoB,art historian 1-4
b_10,13,Paintings/Closea2.jpeg,0,2,2,in a year,3.2340939045,13,0,7,7,5,2.877,13,0,6,6,7,3.645,12,"[0.4, 0]","[-0.4, 0]",Paintings/Closea2new.jpeg,0,5,5,4,9.811,12,Close,indeterminate,1,2016-07-22T15:07:00Z,59.9660874464,tryagainsim,art historian,15.9997179508,1-4,18.6188540459,1,2,Closea2.,A,CloseA,art historian 1-4
b_10,1,Paintings/Clifb2.jpeg,0,3,3,tomorrow,2.25965094566,1,0,18,18,5,2.344,1,0,10,10,4,4.682,NA,NA,NA,NA,NA,NA,NA,NA,NA,NA,Still,indeterminate,1,2016-07-22T15:07:00Z,59.9660874464,tryagainsim,art historian,15.9997179508,1-4,18.6188540459,0,2,Clifb2.,B,StillB,art historian 1-4
b_10,16,Paintings/Rothkoa2.jpeg,0,4,4,tomorrow,2.90457701683,16,0,14,14,7,8.156,16,0,19,19,6,14.682,6,"[0.4, 0]","[-0.4, 0]",Paintings/Rothkoa2new.jpeg,0,6,6,4,18.898,6,Rothko,indeterminate,1,2016-07-22T15:07:00Z,59.9660874464,tryagainsim,art historian,15.9997179508,1-4,18.6188540459,0,2,Rothkoa2.,A,RothkoA,art historian 1-4
b_10,11,Paintings/Monb3.jpeg,0,5,5,in a year,3.30240392685,11,0,9,9,5,2.61,11,0,8,8,7,1.771,5,"[0.4, 0]","[-0.4, 0]",Paintings/Monb3new.jpeg,0,12,12,6,2.842,5,Mondrian,abstract,1,2016-07-22T15:07:00Z,59.9660874464,tryagainsim,art historian,15.9997179508,1-4,18.6188540459,1,3,Monb3.,B,MondrianB,art historian 1-4
b_10,9,Paintings/Monb1.jpeg,0,6,6,in a year,3.06660294533,9,0,6,6,3,2.211,9,0,16,16,1,2.744,3,"[0.4, 0]","[-0.4, 0]",Paintings/Monb1new.jpeg,0,3,3,2,2.674,3,Mondrian,concrete,1,2016-07-22T15:07:00Z,59.9660874464,tryagainsim,art historian,15.9997179508,1-4,18.6188540459,1,1,Monb1.,B,MondrianB,art historian 1-4
b_10,15,Paintings/Rothkoa1.jpeg,0,7,7,tomorrow,3.5988779068,15,0,5,5,4,4.202,15,0,11,11,1,3.181,NA,NA,NA,NA,NA,NA,NA,NA,NA,NA,Rothko,concrete,1,2016-07-22T15:07:00Z,59.9660874464,tryagainsim,art historian,15.9997179508,1-4,18.6188540459,0,1,Rothkoa1.,A,RothkoA,art historian 1-4
b_10,2,Paintings/Clifb3.jpeg,0,8,8,tomorrow,6.49707198143,2,0,19,19,4,4.046,2,0,15,15,7,4.914,NA,NA,NA,NA,NA,NA,NA,NA,NA,NA,Still,abstract,1,2016-07-22T15:07:00Z,59.9660874464,tryagainsim,art historian,15.9997179508,1-4,18.6188540459,0,3,Clifb3.,B,StillB,art historian 1-4
b_10,12,Paintings/Closea1.jpeg,0,9,9,tomorrow,1.72406506538,12,0,1,1,4,6.783,12,0,20,20,1,4.452,11,"[0.4, 0]","[-0.4, 0]",Paintings/Closea1new.jpeg,0,4,4,3,5.541,11,Close,concrete,1,2016-07-22T15:07:00Z,59.9660874464,tryagainsim,art historian,15.9997179508,1-4,18.6188540459,0,1,Closea1.,A,CloseA,art historian 1-4
b_10,19,Paintings/Rothkob2.jpeg,0,10,10,tomorrow,2.13230395317,19,0,10,10,7,2.415,19,0,12,12,5,7.452,9,"[0.4, 0]","[-0.4, 0]",Paintings/Rothkob3new2.jpeg,0,10,10,2,3.673,9,Rothko,indeterminate,1,2016-07-22T15:07:00Z,59.9660874464,tryagainsim,art historian,15.9997179508,1-4,18.6188540459,0,2,Rothkob2.,B,RothkoB,art historian 1-4
b_10,8,Paintings/MonA3.jpeg,0,11,11,tomorrow,4.6604309082,8,0,20,20,5,2.84,8,0,5,5,6,3.478,2,"[0.4, 0]","[-0.4, 0]",Paintings/MonA3new.jpeg,0,11,11,6,3.946,2,Mondrian,abstract,1,2016-07-22T15:07:00Z,59.9660874464,tryagainsim,art historian,15.9997179508,1-4,18.6188540459,0,3,MonA3.,A,MondrianA,art historian 1-4
b_10,20,Paintings/Rothkob3.jpeg,0,12,12,tomorrow,10.0454461575,20,0,17,17,6,2.132,20,0,7,7,7,1.442,10,"[0.4, 0]","[-0.4, 0]",Paintings/Rothkob2new3.jpeg,0,8,8,4,2.952,10,Rothko,abstract,1,2016-07-22T15:07:00Z,59.9660874464,tryagainsim,art historian,15.9997179508,1-4,18.6188540459,0,3,Rothkob3.,B,RothkoB,art historian 1-4
b_10,7,Paintings/MonA2.jpeg,0,13,13,in a year,6.2683660984,7,0,12,12,6,3.216,7,0,3,3,3,4.803,1,"[0.4, 0]","[-0.4, 0]",Paintings/MonA2new.jpeg,0,0,0,6,14.418,1,Mondrian,indeterminate,1,2016-07-22T15:07:00Z,59.9660874464,tryagainsim,art historian,15.9997179508,1-4,18.6188540459,1,2,MonA2.,A,MondrianA,art historian 1-4
b_10,17,Paintings/Rothkoa3.jpeg,0,14,14,in a year,1.45968389511,17,0,16,16,5,2.709,17,0,9,9,6,6.38,7,"[0.4, 0]","[-0.4, 0]",Paintings/Rothkoa3new.jpeg,0,9,9,3,2.714,7,Rothko,abstract,1,2016-07-22T15:07:00Z,59.9660874464,tryagainsim,art historian,15.9997179508,1-4,18.6188540459,1,3,Rothkoa3.,A,RothkoA,art historian 1-4
b_10,6,Paintings/MonA1.jpeg,0,15,15,tomorrow,7.06548500061,6,0,8,8,7,2.069,6,0,14,14,2,3.781,0,"[0.4, 0]","[-0.4, 0]",Paintings/MonA1new.jpeg,0,7,7,2,5.319,0,Mondrian,concrete,1,2016-07-22T15:07:00Z,59.9660874464,tryagainsim,art historian,15.9997179508,1-4,18.6188540459,0,1,MonA1.,A,MondrianA,art historian 1-4
b_10,0,Paintings/Clifb1.jpeg,0,16,16,tomorrow,1.76512098312,0,0,15,15,6,3.675,0,0,13,13,2,4.379,NA,NA,NA,NA,NA,NA,NA,NA,NA,NA,Still,concrete,1,2016-07-22T15:07:00Z,59.9660874464,tryagainsim,art historian,15.9997179508,1-4,18.6188540459,0,1,Clifb1.,B,StillB,art historian 1-4
b_10,5,Paintings/Clifa3.jpeg,0,17,17,in a year,2.2367348671,5,0,11,11,5,4.514,5,0,4,4,6,2.905,NA,NA,NA,NA,NA,NA,NA,NA,NA,NA,Still,abstract,1,2016-07-22T15:07:00Z,59.9660874464,tryagainsim,art historian,15.9997179508,1-4,18.6188540459,1,3,Clifa3.,A,StillA,art historian 1-4
b_10,4,Paintings/Clifa2.jpeg,0,18,18,tomorrow,3.79391002655,4,0,3,3,5,2.405,4,0,17,17,5,2.978,NA,NA,NA,NA,NA,NA,NA,NA,NA,NA,Still,indeterminate,1,2016-07-22T15:07:00Z,59.9660874464,tryagainsim,art historian,15.9997179508,1-4,18.6188540459,0,2,Clifa2.,A,StillA,art historian 1-4
b_10,10,Paintings/Monb2.jpeg,0,19,19,in a year,2.4014852047,10,0,13,13,4,2.838,10,0,2,2,4,2.305,4,"[0.4, 0]","[-0.4, 0]",Paintings/Monb2new.jpeg,0,13,13,5,2.683,4,Mondrian,indeterminate,1,2016-07-22T15:07:00Z,59.9660874464,tryagainsim,art historian,15.9997179508,1-4,18.6188540459,1,2,Monb2.,B,MondrianB,art historian 1-4
b_10,3,Paintings/Clifa1.jpeg,0,20,20,tomorrow,2.60221290588,3,0,4,4,5,4.211,3,0,0,0,2,6.679,NA,NA,NA,NA,NA,NA,NA,NA,NA,NA,Still,concrete,1,2016-07-22T15:07:00Z,59.9660874464,tryagainsim,art historian,15.9997179508,1-4,18.6188540459,0,1,Clifa1.,A,StillA,art historian 1-4
b_11,0,Paintings/Clifb1.jpeg,0,0,0,in a year,25.5597860813,0,0,16,16,5,3.872,0,0,17,17,3,4.485,NA,NA,NA,NA,NA,NA,NA,NA,NA,NA,Still,concrete,1,2016-07-22T16:58:00Z,59.9786929482,tryagainsim,enthusiast,23.6240170002,1-4,11.1446650028,1,1,Clifb1.,B,StillB,enthusiast 1-4
b_11,10,Paintings/Monb2.jpeg,0,1,1,in a year,7.73618507385,10,0,4,4,4,4.806,10,0,7,7,6,3.851,4,"[0.4, 0]","[-0.4, 0]",Paintings/Monb2new.jpeg,0,11,11,6,5.55,4,Mondrian,indeterminate,1,2016-07-22T16:58:00Z,59.9786929482,tryagainsim,enthusiast,23.6240170002,1-4,11.1446650028,1,2,Monb2.,B,MondrianB,enthusiast 1-4
b_11,9,Paintings/Monb1.jpeg,0,2,2,in a year,5.55969285965,9,0,6,6,4,3.642,9,0,19,19,2,3.476,3,"[0.4, 0]","[-0.4, 0]",Paintings/Monb1new.jpeg,0,5,5,4,10.311,3,Mondrian,concrete,1,2016-07-22T16:58:00Z,59.9786929482,tryagainsim,enthusiast,23.6240170002,1-4,11.1446650028,1,1,Monb1.,B,MondrianB,enthusiast 1-4
b_11,13,Paintings/Closea2.jpeg,0,3,3,tomorrow,13.9021890163,13,0,19,19,4,3.582,13,0,3,3,7,2.715,12,"[0.4, 0]","[-0.4, 0]",Paintings/Closea2new.jpeg,0,3,3,6,10.049,12,Close,indeterminate,1,2016-07-22T16:58:00Z,59.9786929482,tryagainsim,enthusiast,23.6240170002,1-4,11.1446650028,0,2,Closea2.,A,CloseA,enthusiast 1-4
b_11,19,Paintings/Rothkob2.jpeg,0,4,4,tomorrow,6.00239706039,19,0,17,17,5,3.817,19,0,20,20,5,2.734,9,"[0.4, 0]","[-0.4, 0]",Paintings/Rothkob3new2.jpeg,0,12,12,4,4.739,9,Rothko,indeterminate,1,2016-07-22T16:58:00Z,59.9786929482,tryagainsim,enthusiast,23.6240170002,1-4,11.1446650028,0,2,Rothkob2.,B,RothkoB,enthusiast 1-4
b_11,3,Paintings/Clifa1.jpeg,0,5,5,in a year,29.1309309006,3,0,10,10,4,4.015,3,0,10,10,3,6.45,NA,NA,NA,NA,NA,NA,NA,NA,NA,NA,Still,concrete,1,2016-07-22T16:58:00Z,59.9786929482,tryagainsim,enthusiast,23.6240170002,1-4,11.1446650028,1,1,Clifa1.,A,StillA,enthusiast 1-4
b_11,2,Paintings/Clifb3.jpeg,0,6,6,in a year,7.60235404968,2,0,20,20,4,3.17,2,0,15,15,6,3.212,NA,NA,NA,NA,NA,NA,NA,NA,NA,NA,Still,abstract,1,2016-07-22T16:58:00Z,59.9786929482,tryagainsim,enthusiast,23.6240170002,1-4,11.1446650028,1,3,Clifb3.,B,StillB,enthusiast 1-4
b_11,7,Paintings/MonA2.jpeg,0,7,7,in a year,7.00462794304,7,0,3,3,4,3.968,7,0,16,16,5,3.268,1,"[0.4, 0]","[-0.4, 0]",Paintings/MonA2new.jpeg,0,8,8,4,3.618,1,Mondrian,indeterminate,1,2016-07-22T16:58:00Z,59.9786929482,tryagainsim,enthusiast,23.6240170002,1-4,11.1446650028,1,2,MonA2.,A,MondrianA,enthusiast 1-4
b_11,18,Paintings/Rothkob1.jpeg,0,8,8,in a year,8.31075000763,18,0,8,8,5,3.215,18,0,11,11,2,5.039,8,"[0.4, 0]","[-0.4, 0]",Paintings/Rothkob1new.jpeg,0,1,1,6,4.404,8,Rothko,concrete,1,2016-07-22T16:58:00Z,59.9786929482,tryagainsim,enthusiast,23.6240170002,1-4,11.1446650028,1,1,Rothkob1.,B,RothkoB,enthusiast 1-4
b_11,12,Paintings/Closea1.jpeg,0,9,9,tomorrow,13.2728559971,12,0,11,11,5,18.491,12,0,4,4,1,3.551,11,"[0.4, 0]","[-0.4, 0]",Paintings/Closea1new.jpeg,0,6,6,5,14.992,11,Close,concrete,1,2016-07-22T16:58:00Z,59.9786929482,tryagainsim,enthusiast,23.6240170002,1-4,11.1446650028,0,1,Closea1.,A,CloseA,enthusiast 1-4
b_11,15,Paintings/Rothkoa1.jpeg,0,10,10,tomorrow,7.30289292336,15,0,7,7,5,3.416,15,0,18,18,2,2.814,NA,NA,NA,NA,NA,NA,NA,NA,NA,NA,Rothko,concrete,1,2016-07-22T16:58:00Z,59.9786929482,tryagainsim,enthusiast,23.6240170002,1-4,11.1446650028,0,1,Rothkoa1.,A,RothkoA,enthusiast 1-4
b_11,11,Paintings/Monb3.jpeg,0,11,11,in a year,6.42857813835,11,0,2,2,4,4.011,11,0,12,12,6,3.448,5,"[0.4, 0]","[-0.4, 0]",Paintings/Monb3new.jpeg,0,0,0,6,6.905,5,Mondrian,abstract,1,2016-07-22T16:58:00Z,59.9786929482,tryagainsim,enthusiast,23.6240170002,1-4,11.1446650028,1,3,Monb3.,B,MondrianB,enthusiast 1-4
b_11,20,Paintings/Rothkob3.jpeg,0,12,12,tomorrow,7.67485499382,20,0,13,13,5,3.34,20,0,0,0,7,6.58,10,"[0.4, 0]","[-0.4, 0]",Paintings/Rothkob2new3.jpeg,0,13,13,6,3.111,10,Rothko,abstract,1,2016-07-22T16:58:00Z,59.9786929482,tryagainsim,enthusiast,23.6240170002,1-4,11.1446650028,0,3,Rothkob3.,B,RothkoB,enthusiast 1-4
b_11,17,Paintings/Rothkoa3.jpeg,0,13,13,in a year,4.74050807953,17,0,15,15,4,3.38,17,0,1,1,7,4.109,7,"[0.4, 0]","[-0.4, 0]",Paintings/Rothkoa3new.jpeg,0,2,2,5,4.14,7,Rothko,abstract,1,2016-07-22T16:58:00Z,59.9786929482,tryagainsim,enthusiast,23.6240170002,1-4,11.1446650028,1,3,Rothkoa3.,A,RothkoA,enthusiast 1-4
b_11,8,Paintings/MonA3.jpeg,0,14,14,in a year,6.3749101162,8,0,12,12,4,3.313,8,0,2,2,7,3.279,2,"[0.4, 0]","[-0.4, 0]",Paintings/MonA3new.jpeg,0,10,10,6,6.277,2,Mondrian,abstract,1,2016-07-22T16:58:00Z,59.9786929482,tryagainsim,enthusiast,23.6240170002,1-4,11.1446650028,1,3,MonA3.,A,MondrianA,enthusiast 1-4
b_11,6,Paintings/MonA1.jpeg,0,15,15,tomorrow,15.1088080406,6,0,14,14,4,3.711,6,0,14,14,4,3.583,0,"[0.4, 0]","[-0.4, 0]",Paintings/MonA1new.jpeg,0,7,7,3,4.24,0,Mondrian,concrete,1,2016-07-22T16:58:00Z,59.9786929482,tryagainsim,enthusiast,23.6240170002,1-4,11.1446650028,0,1,MonA1.,A,MondrianA,enthusiast 1-4
b_11,1,Paintings/Clifb2.jpeg,0,16,16,in a year,5.20626711845,1,0,0,0,4,11.982,1,0,13,13,5,3.003,NA,NA,NA,NA,NA,NA,NA,NA,NA,NA,Still,indeterminate,1,2016-07-22T16:58:00Z,59.9786929482,tryagainsim,enthusiast,23.6240170002,1-4,11.1446650028,1,2,Clifb2.,B,StillB,enthusiast 1-4
b_11,5,Paintings/Clifa3.jpeg,0,17,17,in a year,5.82563304901,5,0,1,1,4,6.143,5,0,9,9,6,3.812,NA,NA,NA,NA,NA,NA,NA,NA,NA,NA,Still,abstract,1,2016-07-22T16:58:00Z,59.9786929482,tryagainsim,enthusiast,23.6240170002,1-4,11.1446650028,1,3,Clifa3.,A,StillA,enthusiast 1-4
b_11,16,Paintings/Rothkoa2.jpeg,0,18,18,tomorrow,7.23631811142,16,0,5,5,5,5.255,16,0,6,6,5,4.321,6,"[0.4, 0]","[-0.4, 0]",Paintings/Rothkoa2new.jpeg,0,4,4,6,6.318,6,Rothko,indeterminate,1,2016-07-22T16:58:00Z,59.9786929482,tryagainsim,enthusiast,23.6240170002,1-4,11.1446650028,0,2,Rothkoa2.,A,RothkoA,enthusiast 1-4
b_11,14,Paintings/Closea3.jpeg,0,19,19,in a year,11.6041808128,14,0,18,18,4,2.909,14,0,8,8,7,6.116,13,"[0.4, 0]","[-0.4, 0]",Paintings/Closea2new.jpeg,0,9,9,5,3.307,13,Close,abstract,1,2016-07-22T16:58:00Z,59.9786929482,tryagainsim,enthusiast,23.6240170002,1-4,11.1446650028,1,3,Closea3.,A,CloseA,enthusiast 1-4
b_11,4,Paintings/Clifa2.jpeg,0,20,20,tomorrow,6.26423692703,4,0,9,9,5,3.38,4,0,5,5,5,5.181,NA,NA,NA,NA,NA,NA,NA,NA,NA,NA,Still,indeterminate,1,2016-07-22T16:58:00Z,59.9786929482,tryagainsim,enthusiast,23.6240170002,1-4,11.1446650028,0,2,Clifa2.,A,StillA,enthusiast 1-4
b_12a,19,Paintings/Rothkob2.jpeg,0,0,0,tomorrow,4.92629003525,19,0,20,20,6,1.012,19,0,5,5,5,1.876,9,"[0.4, 0]","[-0.4, 0]",Paintings/Rothkob3new2.jpeg,0,8,8,2,2.035,9,Rothko,indeterminate,1,2016-07-25T14:37:00Z,59.9315566644,tryagainsim,novice,2.5026049614,0,1.68485403061,0,2,Rothkob2.,B,RothkoB,novice 0
b_12a,9,Paintings/Monb1.jpeg,0,1,1,in a year,1.26295018196,9,0,13,13,4,1.982,9,0,10,10,2,2.482,3,"[0.4, 0]","[-0.4, 0]",Paintings/Monb1new.jpeg,0,10,10,5,2.045,3,Mondrian,concrete,1,2016-07-25T14:37:00Z,59.9315566644,tryagainsim,novice,2.5026049614,0,1.68485403061,1,1,Monb1.,B,MondrianB,novice 0
b_12a,15,Paintings/Rothkoa1.jpeg,0,2,2,in a year,0.994540929794,15,0,1,1,3,1.777,15,0,1,1,3,2.147,NA,NA,NA,NA,NA,NA,NA,NA,NA,NA,Rothko,concrete,1,2016-07-25T14:37:00Z,59.9315566644,tryagainsim,novice,2.5026049614,0,1.68485403061,1,1,Rothkoa1.,A,RothkoA,novice 0
b_12a,14,Paintings/Closea3.jpeg,0,3,3,tomorrow,1.1339161396,14,0,12,12,6,0.931,14,0,6,6,6,1.107,13,"[0.4, 0]","[-0.4, 0]",Paintings/Closea2new.jpeg,0,3,3,4,2.087,13,Close,abstract,1,2016-07-25T14:37:00Z,59.9315566644,tryagainsim,novice,2.5026049614,0,1.68485403061,0,3,Closea3.,A,CloseA,novice 0
b_12a,6,Paintings/MonA1.jpeg,0,4,4,tomorrow,1.67048311234,6,0,14,14,3,1.546,6,0,7,7,3,1.511,0,"[0.4, 0]","[-0.4, 0]",Paintings/MonA1new.jpeg,0,2,2,5,2.737,0,Mondrian,concrete,1,2016-07-25T14:37:00Z,59.9315566644,tryagainsim,novice,2.5026049614,0,1.68485403061,0,1,MonA1.,A,MondrianA,novice 0
b_12a,0,Paintings/Clifb1.jpeg,0,5,5,tomorrow,0.903253793716,0,0,10,10,2,3.179,0,0,11,11,3,1.411,NA,NA,NA,NA,NA,NA,NA,NA,NA,NA,Still,concrete,1,2016-07-25T14:37:00Z,59.9315566644,tryagainsim,novice,2.5026049614,0,1.68485403061,0,1,Clifb1.,B,StillB,novice 0
b_12a,1,Paintings/Clifb2.jpeg,0,6,6,in a year,1.59289884567,1,0,8,8,3,1.868,1,0,16,16,4,2.936,NA,NA,NA,NA,NA,NA,NA,NA,NA,NA,Still,indeterminate,1,2016-07-25T14:37:00Z,59.9315566644,tryagainsim,novice,2.5026049614,0,1.68485403061,1,2,Clifb2.,B,StillB,novice 0
b_12a,17,Paintings/Rothkoa3.jpeg,0,7,7,tomorrow,1.35719919205,17,0,0,0,4,6.27,17,0,19,19,6,1.305,7,"[0.4, 0]","[-0.4, 0]",Paintings/Rothkoa3new.jpeg,0,9,9,2,2.649,7,Rothko,abstract,1,2016-07-25T14:37:00Z,59.9315566644,tryagainsim,novice,2.5026049614,0,1.68485403061,0,3,Rothkoa3.,A,RothkoA,novice 0
b_12a,8,Paintings/MonA3.jpeg,0,8,8,tomorrow,6.42888116837,8,0,11,11,6,1.406,8,0,3,3,6,1.448,2,"[0.4, 0]","[-0.4, 0]",Paintings/MonA3new.jpeg,0,4,4,4,2.802,2,Mondrian,abstract,1,2016-07-25T14:37:00Z,59.9315566644,tryagainsim,novice,2.5026049614,0,1.68485403061,0,3,MonA3.,A,MondrianA,novice 0
b_12a,10,Paintings/Monb2.jpeg,0,9,9,tomorrow,3.00407314301,10,0,19,19,5,1.334,10,0,12,12,6,1.213,4,"[0.4, 0]","[-0.4, 0]",Paintings/Monb2new.jpeg,0,1,1,3,3.37,4,Mondrian,indeterminate,1,2016-07-25T14:37:00Z,59.9315566644,tryagainsim,novice,2.5026049614,0,1.68485403061,0,2,Monb2.,B,MondrianB,novice 0
b_12a,12,Paintings/Closea1.jpeg,0,10,10,in a year,0.803941011429,12,0,5,5,2,2.684,12,0,15,15,1,1.716,11,"[0.4, 0]","[-0.4, 0]",Paintings/Closea1new.jpeg,0,0,0,6,5.449,11,Close,concrete,1,2016-07-25T14:37:00Z,59.9315566644,tryagainsim,novice,2.5026049614,0,1.68485403061,1,1,Closea1.,A,CloseA,novice 0
b_12a,7,Paintings/MonA2.jpeg,0,11,11,tomorrow,0.830587148666,7,0,7,7,6,1.245,7,0,9,9,6,1.207,1,"[0.4, 0]","[-0.4, 0]",Paintings/MonA2new.jpeg,0,7,7,2,3.04,1,Mondrian,indeterminate,1,2016-07-25T14:37:00Z,59.9315566644,tryagainsim,novice,2.5026049614,0,1.68485403061,0,2,MonA2.,A,MondrianA,novice 0
b_12a,3,Paintings/Clifa1.jpeg,0,12,12,in a year,0.699588060379,3,0,18,18,3,0.972,3,0,17,17,3,1.748,NA,NA,NA,NA,NA,NA,NA,NA,NA,NA,Still,concrete,1,2016-07-25T14:37:00Z,59.9315566644,tryagainsim,novice,2.5026049614,0,1.68485403061,1,1,Clifa1.,A,StillA,novice 0
b_12a,11,Paintings/Monb3.jpeg,0,13,13,tomorrow,0.528184890747,11,0,15,15,5,1.072,11,0,20,20,5,0.968,5,"[0.4, 0]","[-0.4, 0]",Paintings/Monb3new.jpeg,0,6,6,4,3.466,5,Mondrian,abstract,1,2016-07-25T14:37:00Z,59.9315566644,tryagainsim,novice,2.5026049614,0,1.68485403061,0,3,Monb3.,B,MondrianB,novice 0
b_12a,4,Paintings/Clifa2.jpeg,0,14,14,tomorrow,1.02172780037,4,0,6,6,5,1.778,4,0,13,13,6,1.239,NA,NA,NA,NA,NA,NA,NA,NA,NA,NA,Still,indeterminate,1,2016-07-25T14:37:00Z,59.9315566644,tryagainsim,novice,2.5026049614,0,1.68485403061,0,2,Clifa2.,A,StillA,novice 0
b_12a,16,Paintings/Rothkoa2.jpeg,0,15,15,tomorrow,0.658544063568,16,0,2,2,4,2.079,16,0,8,8,5,1.679,6,"[0.4, 0]","[-0.4, 0]",Paintings/Rothkoa2new.jpeg,0,13,13,6,1.58,6,Rothko,indeterminate,1,2016-07-25T14:37:00Z,59.9315566644,tryagainsim,novice,2.5026049614,0,1.68485403061,0,2,Rothkoa2.,A,RothkoA,novice 0
b_12a,18,Paintings/Rothkob1.jpeg,0,16,16,in a year,0.69624710083,18,0,3,3,2,1.607,18,0,0,0,3,4.809,8,"[0.4, 0]","[-0.4, 0]",Paintings/Rothkob1new.jpeg,0,11,11,6,1.437,8,Rothko,concrete,1,2016-07-25T14:37:00Z,59.9315566644,tryagainsim,novice,2.5026049614,0,1.68485403061,1,1,Rothkob1.,B,RothkoB,novice 0
b_12a,2,Paintings/Clifb3.jpeg,0,17,17,tomorrow,0.660119056702,2,0,9,9,2,1.675,2,0,18,18,7,2.044,NA,NA,NA,NA,NA,NA,NA,NA,NA,NA,Still,abstract,1,2016-07-25T14:37:00Z,59.9315566644,tryagainsim,novice,2.5026049614,0,1.68485403061,0,3,Clifb3.,B,StillB,novice 0
b_12a,13,Paintings/Closea2.jpeg,0,18,18,tomorrow,0.53676199913,13,0,17,17,2,2.269,13,0,2,2,6,1.716,12,"[0.4, 0]","[-0.4, 0]",Paintings/Closea2new.jpeg,0,12,12,3,3.37,12,Close,indeterminate,1,2016-07-25T14:37:00Z,59.9315566644,tryagainsim,novice,2.5026049614,0,1.68485403061,0,2,Closea2.,A,CloseA,novice 0
b_12a,5,Paintings/Clifa3.jpeg,0,19,19,tomorrow,0.622967004776,5,0,16,16,1,4.371,5,0,14,14,7,1.847,NA,NA,NA,NA,NA,NA,NA,NA,NA,NA,Still,abstract,1,2016-07-25T14:37:00Z,59.9315566644,tryagainsim,novice,2.5026049614,0,1.68485403061,0,3,Clifa3.,A,StillA,novice 0
b_12a,20,Paintings/Rothkob3.jpeg,0,20,20,in a year,0.698421001434,20,0,4,4,6,1.972,20,0,4,4,7,1.703,10,"[0.4, 0]","[-0.4, 0]",Paintings/Rothkob2new3.jpeg,0,5,5,3,2.55,10,Rothko,abstract,1,2016-07-25T14:37:00Z,59.9315566644,tryagainsim,novice,2.5026049614,0,1.68485403061,1,3,Rothkob3.,B,RothkoB,novice 0
b_13,14,Paintings/Closea3.jpeg,0,0,0,tomorrow,4.89940714836,14,0,19,19,7,3.815,14,0,9,9,7,2.735,13,"[0.4, 0]","[-0.4, 0]",Paintings/Closea2new.jpeg,0,11,11,4,5.076,13,Close,abstract,1,2016-07-25T14:42:00Z,59.9315566644,tryagainsim,enthusiast,20.0370769501,0,7.22387909889,0,3,Closea3.,A,CloseA,enthusiast 0
b_13,0,Paintings/Clifb1.jpeg,0,1,1,in a year,5.99308800697,0,0,13,13,1,3.337,0,0,4,4,1,1.505,NA,NA,NA,NA,NA,NA,NA,NA,NA,NA,Still,concrete,1,2016-07-25T14:42:00Z,59.9315566644,tryagainsim,enthusiast,20.0370769501,0,7.22387909889,1,1,Clifb1.,B,StillB,enthusiast 0
b_13,12,Paintings/Closea1.jpeg,0,2,2,tomorrow,5.23381495476,12,0,20,20,1,6.013,12,0,8,8,1,0.983,11,"[0.4, 0]","[-0.4, 0]",Paintings/Closea1new.jpeg,0,1,1,7,6.322,11,Close,concrete,1,2016-07-25T14:42:00Z,59.9315566644,tryagainsim,enthusiast,20.0370769501,0,7.22387909889,0,1,Closea1.,A,CloseA,enthusiast 0
b_13,20,Paintings/Rothkob3.jpeg,0,3,3,in a year,4.77185320854,20,0,12,12,3,1.805,20,0,20,20,7,1.239,10,"[0.4, 0]","[-0.4, 0]",Paintings/Rothkob2new3.jpeg,0,0,0,6,13.818,10,Rothko,abstract,1,2016-07-25T14:42:00Z,59.9315566644,tryagainsim,enthusiast,20.0370769501,0,7.22387909889,1,3,Rothkob3.,B,RothkoB,enthusiast 0
b_13,17,Paintings/Rothkoa3.jpeg,0,4,4,in a year,2.10449004173,17,0,6,6,4,4.713,17,0,17,17,7,1.71,7,"[0.4, 0]","[-0.4, 0]",Paintings/Rothkoa3new.jpeg,0,9,9,5,3.31,7,Rothko,abstract,1,2016-07-25T14:42:00Z,59.9315566644,tryagainsim,enthusiast,20.0370769501,0,7.22387909889,1,3,Rothkoa3.,A,RothkoA,enthusiast 0
b_13,8,Paintings/MonA3.jpeg,0,5,5,tomorrow,2.02932691574,8,0,5,5,7,1.647,8,0,0,0,6,10.492,2,"[0.4, 0]","[-0.4, 0]",Paintings/MonA3new.jpeg,0,4,4,4,3.907,2,Mondrian,abstract,1,2016-07-25T14:42:00Z,59.9315566644,tryagainsim,enthusiast,20.0370769501,0,7.22387909889,0,3,MonA3.,A,MondrianA,enthusiast 0
b_13,15,Paintings/Rothkoa1.jpeg,0,6,6,tomorrow,2.29673790932,15,0,15,15,5,7.651,15,0,7,7,2,4.45,NA,NA,NA,NA,NA,NA,NA,NA,NA,NA,Rothko,concrete,1,2016-07-25T14:42:00Z,59.9315566644,tryagainsim,enthusiast,20.0370769501,0,7.22387909889,0,1,Rothkoa1.,A,RothkoA,enthusiast 0
b_13,11,Paintings/Monb3.jpeg,0,7,7,tomorrow,1.6929910183,11,0,3,3,6,3.574,11,0,2,2,6,1.379,5,"[0.4, 0]","[-0.4, 0]",Paintings/Monb3new.jpeg,0,2,2,6,8.143,5,Mondrian,abstract,1,2016-07-25T14:42:00Z,59.9315566644,tryagainsim,enthusiast,20.0370769501,0,7.22387909889,0,3,Monb3.,B,MondrianB,enthusiast 0
b_13,4,Paintings/Clifa2.jpeg,0,8,8,tomorrow,2.1283788681,4,0,14,14,3,5.075,4,0,11,11,4,2.977,NA,NA,NA,NA,NA,NA,NA,NA,NA,NA,Still,indeterminate,1,2016-07-25T14:42:00Z,59.9315566644,tryagainsim,enthusiast,20.0370769501,0,7.22387909889,0,2,Clifa2.,A,StillA,enthusiast 0
b_13,18,Paintings/Rothkob1.jpeg,0,9,9,tomorrow,3.30059814453,18,0,7,7,3,2.309,18,0,16,16,4,4.648,8,"[0.4, 0]","[-0.4, 0]",Paintings/Rothkob1new.jpeg,0,13,13,5,3.983,8,Rothko,concrete,1,2016-07-25T14:42:00Z,59.9315566644,tryagainsim,enthusiast,20.0370769501,0,7.22387909889,0,1,Rothkob1.,B,RothkoB,enthusiast 0
b_13,3,Paintings/Clifa1.jpeg,0,10,10,in a year,6.27037501335,3,0,10,10,3,4.876,3,0,5,5,1,0.949,NA,NA,NA,NA,NA,NA,NA,NA,NA,NA,Still,concrete,1,2016-07-25T14:42:00Z,59.9315566644,tryagainsim,enthusiast,20.0370769501,0,7.22387909889,1,1,Clifa1.,A,StillA,enthusiast 0
b_13,10,Paintings/Monb2.jpeg,0,11,11,tomorrow,2.60482406616,10,0,18,18,6,2.235,10,0,15,15,5,1.949,4,"[0.4, 0]","[-0.4, 0]",Paintings/Monb2new.jpeg,0,12,12,4,5.352,4,Mondrian,indeterminate,1,2016-07-25T14:42:00Z,59.9315566644,tryagainsim,enthusiast,20.0370769501,0,7.22387909889,0,2,Monb2.,B,MondrianB,enthusiast 0
b_13,9,Paintings/Monb1.jpeg,0,12,12,in a year,3.09866786003,9,0,17,17,3,2.277,9,0,6,6,1,0.733,3,"[0.4, 0]","[-0.4, 0]",Paintings/Monb1new.jpeg,0,8,8,6,4.815,3,Mondrian,concrete,1,2016-07-25T14:42:00Z,59.9315566644,tryagainsim,enthusiast,20.0370769501,0,7.22387909889,1,1,Monb1.,B,MondrianB,enthusiast 0
b_13,6,Paintings/MonA1.jpeg,0,13,13,in a year,3.66610598564,6,0,11,11,5,4.184,6,0,10,10,3,2.349,0,"[0.4, 0]","[-0.4, 0]",Paintings/MonA1new.jpeg,0,10,10,3,4.747,0,Mondrian,concrete,1,2016-07-25T14:42:00Z,59.9315566644,tryagainsim,enthusiast,20.0370769501,0,7.22387909889,1,1,MonA1.,A,MondrianA,enthusiast 0
b_13,16,Paintings/Rothkoa2.jpeg,0,14,14,tomorrow,3.93689203262,16,0,16,16,4,3.247,16,0,18,18,6,3.409,6,"[0.4, 0]","[-0.4, 0]",Paintings/Rothkoa2new.jpeg,0,5,5,3,6.774,6,Rothko,indeterminate,1,2016-07-25T14:42:00Z,59.9315566644,tryagainsim,enthusiast,20.0370769501,0,7.22387909889,0,2,Rothkoa2.,A,RothkoA,enthusiast 0
b_13,5,Paintings/Clifa3.jpeg,0,15,15,in a year,5.73611307144,5,0,2,2,4,4.616,5,0,12,12,7,1.951,NA,NA,NA,NA,NA,NA,NA,NA,NA,NA,Still,abstract,1,2016-07-25T14:42:00Z,59.9315566644,tryagainsim,enthusiast,20.0370769501,0,7.22387909889,1,3,Clifa3.,A,StillA,enthusiast 0
b_13,1,Paintings/Clifb2.jpeg,0,16,16,in a year,8.60540390015,1,0,8,8,1,1.733,1,0,13,13,3,2.915,NA,NA,NA,NA,NA,NA,NA,NA,NA,NA,Still,indeterminate,1,2016-07-25T14:42:00Z,59.9315566644,tryagainsim,enthusiast,20.0370769501,0,7.22387909889,1,2,Clifb2.,B,StillB,enthusiast 0
b_13,19,Paintings/Rothkob2.jpeg,0,17,17,in a year,2.09591794014,19,0,1,1,1,5.184,19,0,3,3,4,3.148,9,"[0.4, 0]","[-0.4, 0]",Paintings/Rothkob3new2.jpeg,0,7,7,2,5.553,9,Rothko,indeterminate,1,2016-07-25T14:42:00Z,59.9315566644,tryagainsim,enthusiast,20.0370769501,0,7.22387909889,1,2,Rothkob2.,B,RothkoB,enthusiast 0
b_13,13,Paintings/Closea2.jpeg,0,18,18,tomorrow,2.60293102264,13,0,9,9,6,2.508,13,0,1,1,7,1.971,12,"[0.4, 0]","[-0.4, 0]",Paintings/Closea2new.jpeg,0,6,6,4,9.615,12,Close,indeterminate,1,2016-07-25T14:42:00Z,59.9315566644,tryagainsim,enthusiast,20.0370769501,0,7.22387909889,0,2,Closea2.,A,CloseA,enthusiast 0
b_13,2,Paintings/Clifb3.jpeg,0,19,19,in a year,2.80031704903,2,0,0,0,4,11.558,2,0,14,14,7,2.571,NA,NA,NA,NA,NA,NA,NA,NA,NA,NA,Still,abstract,1,2016-07-25T14:42:00Z,59.9315566644,tryagainsim,enthusiast,20.0370769501,0,7.22387909889,1,3,Clifb3.,B,StillB,enthusiast 0
b_13,7,Paintings/MonA2.jpeg,0,20,20,tomorrow,1.86593008041,7,0,4,4,6,1.711,7,0,19,19,6,3.747,1,"[0.4, 0]","[-0.4, 0]",Paintings/MonA2new.jpeg,0,3,3,2,6.246,1,Mondrian,indeterminate,1,2016-07-25T14:42:00Z,59.9315566644,tryagainsim,enthusiast,20.0370769501,0,7.22387909889,0,2,MonA2.,A,MondrianA,enthusiast 0
b_14,6,Paintings/MonA1.jpeg,0,0,0,tomorrow,16.8464510441,6,0,14,14,7,5.144,6,0,4,4,2,3.011,0,"[0.4, 0]","[-0.4, 0]",Paintings/MonA1new.jpeg,0,3,3,5,7.447,0,Mondrian,concrete,1,2016-07-25T18:16:00Z,59.9136642964,tryagainsim,enthusiast,12.6293828487,1-4,4.45451807976,0,1,MonA1.,A,MondrianA,enthusiast 1-4
b_14,4,Paintings/Clifa2.jpeg,0,1,1,in a year,5.26757693291,4,0,8,8,2,3.572,4,0,14,14,6,2.202,NA,NA,NA,NA,NA,NA,NA,NA,NA,NA,Still,indeterminate,1,2016-07-25T18:16:00Z,59.9136642964,tryagainsim,enthusiast,12.6293828487,1-4,4.45451807976,1,2,Clifa2.,A,StillA,enthusiast 1-4
b_14,9,Paintings/Monb1.jpeg,0,2,2,tomorrow,1.80352711678,9,0,18,18,4,1.845,9,0,5,5,1,2.349,3,"[0.4, 0]","[-0.4, 0]",Paintings/Monb1new.jpeg,0,0,0,5,6.043,3,Mondrian,concrete,1,2016-07-25T18:16:00Z,59.9136642964,tryagainsim,enthusiast,12.6293828487,1-4,4.45451807976,0,1,Monb1.,B,MondrianB,enthusiast 1-4
b_14,20,Paintings/Rothkob3.jpeg,0,3,3,tomorrow,1.70137119293,20,0,15,15,2,2.304,20,0,13,13,7,2.275,10,"[0.4, 0]","[-0.4, 0]",Paintings/Rothkob2new3.jpeg,0,4,4,7,3.617,10,Rothko,abstract,1,2016-07-25T18:16:00Z,59.9136642964,tryagainsim,enthusiast,12.6293828487,1-4,4.45451807976,0,3,Rothkob3.,B,RothkoB,enthusiast 1-4
b_14,3,Paintings/Clifa1.jpeg,0,4,4,tomorrow,2.87258982658,3,0,0,0,4,13.215,3,0,6,6,1,1.812,NA,NA,NA,NA,NA,NA,NA,NA,NA,NA,Still,concrete,1,2016-07-25T18:16:00Z,59.9136642964,tryagainsim,enthusiast,12.6293828487,1-4,4.45451807976,0,1,Clifa1.,A,StillA,enthusiast 1-4
b_14,7,Paintings/MonA2.jpeg,0,5,5,in a year,3.32937002182,7,0,1,1,3,5.072,7,0,18,18,3,3.283,1,"[0.4, 0]","[-0.4, 0]",Paintings/MonA2new.jpeg,0,9,9,4,3.917,1,Mondrian,indeterminate,1,2016-07-25T18:16:00Z,59.9136642964,tryagainsim,enthusiast,12.6293828487,1-4,4.45451807976,1,2,MonA2.,A,MondrianA,enthusiast 1-4
b_14,16,Paintings/Rothkoa2.jpeg,0,6,6,tomorrow,1.76089406013,16,0,20,20,2,2.309,16,0,15,15,5,2.406,6,"[0.4, 0]","[-0.4, 0]",Paintings/Rothkoa2new.jpeg,0,13,13,3,2.403,6,Rothko,indeterminate,1,2016-07-25T18:16:00Z,59.9136642964,tryagainsim,enthusiast,12.6293828487,1-4,4.45451807976,0,2,Rothkoa2.,A,RothkoA,enthusiast 1-4
b_14,11,Paintings/Monb3.jpeg,0,7,7,tomorrow,1.87126016617,11,0,11,11,5,2.476,11,0,8,8,5,1.95,5,"[0.4, 0]","[-0.4, 0]",Paintings/Monb3new.jpeg,0,12,12,4,3.449,5,Mondrian,abstract,1,2016-07-25T18:16:00Z,59.9136642964,tryagainsim,enthusiast,12.6293828487,1-4,4.45451807976,0,3,Monb3.,B,MondrianB,enthusiast 1-4
b_14,10,Paintings/Monb2.jpeg,0,8,8,in a year,4.46610116959,10,0,5,5,4,2.384,10,0,0,0,5,4.572,4,"[0.4, 0]","[-0.4, 0]",Paintings/Monb2new.jpeg,0,1,1,6,3.743,4,Mondrian,indeterminate,1,2016-07-25T18:16:00Z,59.9136642964,tryagainsim,enthusiast,12.6293828487,1-4,4.45451807976,1,2,Monb2.,B,MondrianB,enthusiast 1-4
b_14,15,Paintings/Rothkoa1.jpeg,0,9,9,tomorrow,1.92942905426,15,0,7,7,3,1.865,15,0,1,1,1,3.112,NA,NA,NA,NA,NA,NA,NA,NA,NA,NA,Rothko,concrete,1,2016-07-25T18:16:00Z,59.9136642964,tryagainsim,enthusiast,12.6293828487,1-4,4.45451807976,0,1,Rothkoa1.,A,RothkoA,enthusiast 1-4
b_14,1,Paintings/Clifb2.jpeg,0,10,10,tomorrow,3.19555902481,1,0,9,9,3,3.011,1,0,20,20,5,3.18,NA,NA,NA,NA,NA,NA,NA,NA,NA,NA,Still,indeterminate,1,2016-07-25T18:16:00Z,59.9136642964,tryagainsim,enthusiast,12.6293828487,1-4,4.45451807976,0,2,Clifb2.,B,StillB,enthusiast 1-4
b_14,18,Paintings/Rothkob1.jpeg,0,11,11,tomorrow,3.86960983276,18,0,3,3,3,3.207,18,0,2,2,2,1.813,8,"[0.4, 0]","[-0.4, 0]",Paintings/Rothkob1new.jpeg,0,5,5,7,2.868,8,Rothko,concrete,1,2016-07-25T18:16:00Z,59.9136642964,tryagainsim,enthusiast,12.6293828487,1-4,4.45451807976,0,1,Rothkob1.,B,RothkoB,enthusiast 1-4
b_14,19,Paintings/Rothkob2.jpeg,0,12,12,in a year,1.89912104607,19,0,12,12,2,2.781,19,0,10,10,4,2.383,9,"[0.4, 0]","[-0.4, 0]",Paintings/Rothkob3new2.jpeg,0,6,6,2,2.886,9,Rothko,indeterminate,1,2016-07-25T18:16:00Z,59.9136642964,tryagainsim,enthusiast,12.6293828487,1-4,4.45451807976,1,2,Rothkob2.,B,RothkoB,enthusiast 1-4
b_14,13,Paintings/Closea2.jpeg,0,13,13,in a year,1.60112500191,13,0,6,6,2,2.375,13,0,12,12,7,1.906,12,"[0.4, 0]","[-0.4, 0]",Paintings/Closea2new.jpeg,0,11,11,3,4.569,12,Close,indeterminate,1,2016-07-25T18:16:00Z,59.9136642964,tryagainsim,enthusiast,12.6293828487,1-4,4.45451807976,1,2,Closea2.,A,CloseA,enthusiast 1-4
b_14,12,Paintings/Closea1.jpeg,0,14,14,tomorrow,1.32556009293,12,0,4,4,5,5.173,12,0,17,17,1,2.318,11,"[0.4, 0]","[-0.4, 0]",Paintings/Closea1new.jpeg,0,2,2,5,3.518,11,Close,concrete,1,2016-07-25T18:16:00Z,59.9136642964,tryagainsim,enthusiast,12.6293828487,1-4,4.45451807976,0,1,Closea1.,A,CloseA,enthusiast 1-4
b_14,8,Paintings/MonA3.jpeg,0,15,15,tomorrow,1.02790999413,8,0,17,17,5,2.375,8,0,9,9,5,2.276,2,"[0.4, 0]","[-0.4, 0]",Paintings/MonA3new.jpeg,0,7,7,7,2.673,2,Mondrian,abstract,1,2016-07-25T18:16:00Z,59.9136642964,tryagainsim,enthusiast,12.6293828487,1-4,4.45451807976,0,3,MonA3.,A,MondrianA,enthusiast 1-4
b_14,14,Paintings/Closea3.jpeg,0,16,16,in a year,1.16484689713,14,0,2,2,2,2.679,14,0,16,16,6,1.903,13,"[0.4, 0]","[-0.4, 0]",Paintings/Closea2new.jpeg,0,10,10,4,5.012,13,Close,abstract,1,2016-07-25T18:16:00Z,59.9136642964,tryagainsim,enthusiast,12.6293828487,1-4,4.45451807976,1,3,Closea3.,A,CloseA,enthusiast 1-4
b_14,2,Paintings/Clifb3.jpeg,0,17,17,in a year,1.6312379837,2,0,16,16,1,2.305,2,0,19,19,7,2.538,NA,NA,NA,NA,NA,NA,NA,NA,NA,NA,Still,abstract,1,2016-07-25T18:16:00Z,59.9136642964,tryagainsim,enthusiast,12.6293828487,1-4,4.45451807976,1,3,Clifb3.,B,StillB,enthusiast 1-4
b_14,5,Paintings/Clifa3.jpeg,0,18,18,in a year,0.968310117722,5,0,19,19,2,2.548,5,0,11,11,7,1.939,NA,NA,NA,NA,NA,NA,NA,NA,NA,NA,Still,abstract,1,2016-07-25T18:16:00Z,59.9136642964,tryagainsim,enthusiast,12.6293828487,1-4,4.45451807976,1,3,Clifa3.,A,StillA,enthusiast 1-4
b_14,17,Paintings/Rothkoa3.jpeg,0,19,19,in a year,1.62428498268,17,0,13,13,3,2.337,17,0,7,7,6,2.48,7,"[0.4, 0]","[-0.4, 0]",Paintings/Rothkoa3new.jpeg,0,8,8,3,2.567,7,Rothko,abstract,1,2016-07-25T18:16:00Z,59.9136642964,tryagainsim,enthusiast,12.6293828487,1-4,4.45451807976,1,3,Rothkoa3.,A,RothkoA,enthusiast 1-4
b_14,0,Paintings/Clifb1.jpeg,0,20,20,tomorrow,1.22514295578,0,0,10,10,4,2.349,0,0,3,3,2,2.549,NA,NA,NA,NA,NA,NA,NA,NA,NA,NA,Still,concrete,1,2016-07-25T18:16:00Z,59.9136642964,tryagainsim,enthusiast,12.6293828487,1-4,4.45451807976,0,1,Clifb1.,B,StillB,enthusiast 1-4
b_15,7,Paintings/MonA2.jpeg,0,0,0,in a year,14.6449949741,7,0,2,2,2,5.95,7,0,4,4,3,2.872,1,"[0.4, 0]","[-0.4, 0]",Paintings/MonA2new.jpeg,0,1,1,5,6.783,1,Mondrian,indeterminate,1,2016-07-29T16:44:00Z,59.9045937809,tryagainsim,enthusiast,20.6878771782,1-4,5.73907017708,1,2,MonA2.,A,MondrianA,enthusiast 1-4
b_15,19,Paintings/Rothkob2.jpeg,0,1,1,tomorrow,10.4086329937,19,0,19,19,1,2.67,19,0,15,15,4,2.88,9,"[0.4, 0]","[-0.4, 0]",Paintings/Rothkob3new2.jpeg,0,10,10,4,7.013,9,Rothko,indeterminate,1,2016-07-29T16:44:00Z,59.9045937809,tryagainsim,enthusiast,20.6878771782,1-4,5.73907017708,0,2,Rothkob2.,B,RothkoB,enthusiast 1-4
b_15,0,Paintings/Clifb1.jpeg,0,2,2,tomorrow,3.03177905083,0,0,6,6,7,4.148,0,0,20,20,1,2.176,NA,NA,NA,NA,NA,NA,NA,NA,NA,NA,Still,concrete,1,2016-07-29T16:44:00Z,59.9045937809,tryagainsim,enthusiast,20.6878771782,1-4,5.73907017708,0,1,Clifb1.,B,StillB,enthusiast 1-4
b_15,8,Paintings/MonA3.jpeg,0,3,3,in a year,6.72781991959,8,0,9,9,4,4.313,8,0,6,6,6,2.006,2,"[0.4, 0]","[-0.4, 0]",Paintings/MonA3new.jpeg,0,2,2,6,3.008,2,Mondrian,abstract,1,2016-07-29T16:44:00Z,59.9045937809,tryagainsim,enthusiast,20.6878771782,1-4,5.73907017708,1,3,MonA3.,A,MondrianA,enthusiast 1-4
b_15,3,Paintings/Clifa1.jpeg,0,4,4,tomorrow,9.71255087852,3,0,4,4,6,3.504,3,0,13,13,1,1.935,NA,NA,NA,NA,NA,NA,NA,NA,NA,NA,Still,concrete,1,2016-07-29T16:44:00Z,59.9045937809,tryagainsim,enthusiast,20.6878771782,1-4,5.73907017708,0,1,Clifa1.,A,StillA,enthusiast 1-4
b_15,17,Paintings/Rothkoa3.jpeg,0,5,5,tomorrow,1.12080192566,17,0,15,15,6,3.643,17,0,14,14,6,3.447,7,"[0.4, 0]","[-0.4, 0]",Paintings/Rothkoa3new.jpeg,0,5,5,5,3.907,7,Rothko,abstract,1,2016-07-29T16:44:00Z,59.9045937809,tryagainsim,enthusiast,20.6878771782,1-4,5.73907017708,0,3,Rothkoa3.,A,RothkoA,enthusiast 1-4
b_15,10,Paintings/Monb2.jpeg,0,6,6,in a year,4.56519198418,10,0,10,10,2,3.972,10,0,1,1,4,2.645,4,"[0.4, 0]","[-0.4, 0]",Paintings/Monb2new.jpeg,0,13,13,4,5.677,4,Mondrian,indeterminate,1,2016-07-29T16:44:00Z,59.9045937809,tryagainsim,enthusiast,20.6878771782,1-4,5.73907017708,1,2,Monb2.,B,MondrianB,enthusiast 1-4
b_15,12,Paintings/Closea1.jpeg,0,7,7,in a year,2.90360403061,12,0,18,18,3,3.477,12,0,2,2,1,2.542,11,"[0.4, 0]","[-0.4, 0]",Paintings/Closea1new.jpeg,0,7,7,2,4.607,11,Close,concrete,1,2016-07-29T16:44:00Z,59.9045937809,tryagainsim,enthusiast,20.6878771782,1-4,5.73907017708,1,1,Closea1.,A,CloseA,enthusiast 1-4
b_15,15,Paintings/Rothkoa1.jpeg,0,8,8,tomorrow,2.90004110336,15,0,11,11,3,4.049,15,0,0,0,1,3.304,NA,NA,NA,NA,NA,NA,NA,NA,NA,NA,Rothko,concrete,1,2016-07-29T16:44:00Z,59.9045937809,tryagainsim,enthusiast,20.6878771782,1-4,5.73907017708,0,1,Rothkoa1.,A,RothkoA,enthusiast 1-4
b_15,18,Paintings/Rothkob1.jpeg,0,9,9,tomorrow,4.03722000122,18,0,3,3,5,5.041,18,0,7,7,2,3.884,8,"[0.4, 0]","[-0.4, 0]",Paintings/Rothkob1new.jpeg,0,12,12,5,4.82,8,Rothko,concrete,1,2016-07-29T16:44:00Z,59.9045937809,tryagainsim,enthusiast,20.6878771782,1-4,5.73907017708,0,1,Rothkob1.,B,RothkoB,enthusiast 1-4
b_15,11,Paintings/Monb3.jpeg,0,10,10,in a year,3.03427505493,11,0,14,14,1,2.977,11,0,8,8,6,2.915,5,"[0.4, 0]","[-0.4, 0]",Paintings/Monb3new.jpeg,0,4,4,7,2.738,5,Mondrian,abstract,1,2016-07-29T16:44:00Z,59.9045937809,tryagainsim,enthusiast,20.6878771782,1-4,5.73907017708,1,3,Monb3.,B,MondrianB,enthusiast 1-4
b_15,2,Paintings/Clifb3.jpeg,0,11,11,in a year,3.26755404472,2,0,16,16,5,5.441,2,0,19,19,6,2.444,NA,NA,NA,NA,NA,NA,NA,NA,NA,NA,Still,abstract,1,2016-07-29T16:44:00Z,59.9045937809,tryagainsim,enthusiast,20.6878771782,1-4,5.73907017708,1,3,Clifb3.,B,StillB,enthusiast 1-4
b_15,9,Paintings/Monb1.jpeg,0,12,12,tomorrow,2.22800397873,9,0,13,13,4,4.237,9,0,12,12,1,2.649,3,"[0.4, 0]","[-0.4, 0]",Paintings/Monb1new.jpeg,0,3,3,3,4.518,3,Mondrian,concrete,1,2016-07-29T16:44:00Z,59.9045937809,tryagainsim,enthusiast,20.6878771782,1-4,5.73907017708,0,1,Monb1.,B,MondrianB,enthusiast 1-4
b_15,20,Paintings/Rothkob3.jpeg,0,13,13,tomorrow,4.17053794861,20,0,1,1,3,5.668,20,0,10,10,7,2.569,10,"[0.4, 0]","[-0.4, 0]",Paintings/Rothkob2new3.jpeg,0,11,11,2,5.788,10,Rothko,abstract,1,2016-07-29T16:44:00Z,59.9045937809,tryagainsim,enthusiast,20.6878771782,1-4,5.73907017708,0,3,Rothkob3.,B,RothkoB,enthusiast 1-4
b_15,16,Paintings/Rothkoa2.jpeg,0,14,14,in a year,3.85765194893,16,0,0,0,2,13.2,16,0,16,16,4,4.78,6,"[0.4, 0]","[-0.4, 0]",Paintings/Rothkoa2new.jpeg,0,0,0,5,5.541,6,Rothko,indeterminate,1,2016-07-29T16:44:00Z,59.9045937809,tryagainsim,enthusiast,20.6878771782,1-4,5.73907017708,1,2,Rothkoa2.,A,RothkoA,enthusiast 1-4
b_15,1,Paintings/Clifb2.jpeg,0,15,15,in a year,8.39599895477,1,0,5,5,1,4.074,1,0,11,11,2,2.646,NA,NA,NA,NA,NA,NA,NA,NA,NA,NA,Still,indeterminate,1,2016-07-29T16:44:00Z,59.9045937809,tryagainsim,enthusiast,20.6878771782,1-4,5.73907017708,1,2,Clifb2.,B,StillB,enthusiast 1-4
b_15,4,Paintings/Clifa2.jpeg,0,16,16,tomorrow,1.79937601089,4,0,20,20,3,4.085,4,0,9,9,4,3.411,NA,NA,NA,NA,NA,NA,NA,NA,NA,NA,Still,indeterminate,1,2016-07-29T16:44:00Z,59.9045937809,tryagainsim,enthusiast,20.6878771782,1-4,5.73907017708,0,2,Clifa2.,A,StillA,enthusiast 1-4
b_15,6,Paintings/MonA1.jpeg,0,17,17,tomorrow,1.99878406525,6,0,7,7,7,2.779,6,0,18,18,2,2.403,0,"[0.4, 0]","[-0.4, 0]",Paintings/MonA1new.jpeg,0,8,8,2,3.143,0,Mondrian,concrete,1,2016-07-29T16:44:00Z,59.9045937809,tryagainsim,enthusiast,20.6878771782,1-4,5.73907017708,0,1,MonA1.,A,MondrianA,enthusiast 1-4
b_15,13,Paintings/Closea2.jpeg,0,18,18,in a year,8.93148779869,13,0,12,12,5,4.309,13,0,17,17,5,2.571,12,"[0.4, 0]","[-0.4, 0]",Paintings/Closea2new.jpeg,0,9,9,3,7.34,12,Close,indeterminate,1,2016-07-29T16:44:00Z,59.9045937809,tryagainsim,enthusiast,20.6878771782,1-4,5.73907017708,1,2,Closea2.,A,CloseA,enthusiast 1-4
b_15,5,Paintings/Clifa3.jpeg,0,19,19,in a year,3.59184503555,5,0,8,8,3,3.938,5,0,5,5,5,3.306,NA,NA,NA,NA,NA,NA,NA,NA,NA,NA,Still,abstract,1,2016-07-29T16:44:00Z,59.9045937809,tryagainsim,enthusiast,20.6878771782,1-4,5.73907017708,1,3,Clifa3.,A,StillA,enthusiast 1-4
b_15,14,Paintings/Closea3.jpeg,0,20,20,tomorrow,1.68974494934,14,0,17,17,7,3.247,14,0,3,3,5,2.97,13,"[0.4, 0]","[-0.4, 0]",Paintings/Closea2new.jpeg,0,6,6,4,3.15,13,Close,abstract,1,2016-07-29T16:44:00Z,59.9045937809,tryagainsim,enthusiast,20.6878771782,1-4,5.73907017708,0,3,Closea3.,A,CloseA,enthusiast 1-4
b_16,5,Paintings/Clifa3.jpeg,0,0,0,tomorrow,9.6423728466,5,0,6,6,4,2.25,5,0,3,3,5,3.808,NA,NA,NA,NA,NA,NA,NA,NA,NA,NA,Still,abstract,1,2016-08-03T15:16:00Z,59.9426912804,tryagainsim,enthusiast,11.5451369286,1-4,18.4687151909,0,3,Clifa3.,A,StillA,enthusiast 1-4
b_16,14,Paintings/Closea3.jpeg,0,1,1,in a year,6.27136182785,14,0,18,18,1,2.113,14,0,7,7,7,4.379,13,"[0.4, 0]","[-0.4, 0]",Paintings/Closea2new.jpeg,0,6,6,3,14.201,13,Close,abstract,1,2016-08-03T15:16:00Z,59.9426912804,tryagainsim,enthusiast,11.5451369286,1-4,18.4687151909,1,3,Closea3.,A,CloseA,enthusiast 1-4
b_16,10,Paintings/Monb2.jpeg,0,2,2,tomorrow,3.67267107964,10,0,4,4,1,3.009,10,0,6,6,4,3.082,4,"[0.4, 0]","[-0.4, 0]",Paintings/Monb2new.jpeg,0,4,4,3,4.845,4,Mondrian,indeterminate,1,2016-08-03T15:16:00Z,59.9426912804,tryagainsim,enthusiast,11.5451369286,1-4,18.4687151909,0,2,Monb2.,B,MondrianB,enthusiast 1-4
b_16,3,Paintings/Clifa1.jpeg,0,3,3,tomorrow,3.8284599781,3,0,20,20,4,1.566,3,0,10,10,1,1.612,NA,NA,NA,NA,NA,NA,NA,NA,NA,NA,Still,concrete,1,2016-08-03T15:16:00Z,59.9426912804,tryagainsim,enthusiast,11.5451369286,1-4,18.4687151909,0,1,Clifa1.,A,StillA,enthusiast 1-4
b_16,1,Paintings/Clifb2.jpeg,0,4,4,in a year,4.36302709579,1,0,19,19,3,1.868,1,0,5,5,4,3.17,NA,NA,NA,NA,NA,NA,NA,NA,NA,NA,Still,indeterminate,1,2016-08-03T15:16:00Z,59.9426912804,tryagainsim,enthusiast,11.5451369286,1-4,18.4687151909,1,2,Clifb2.,B,StillB,enthusiast 1-4
b_16,20,Paintings/Rothkob3.jpeg,0,5,5,tomorrow,2.43502211571,20,0,15,15,6,1.748,20,0,16,16,7,2.335,10,"[0.4, 0]","[-0.4, 0]",Paintings/Rothkob2new3.jpeg,0,12,12,4,7.131,10,Rothko,abstract,1,2016-08-03T15:16:00Z,59.9426912804,tryagainsim,enthusiast,11.5451369286,1-4,18.4687151909,0,3,Rothkob3.,B,RothkoB,enthusiast 1-4
b_16,17,Paintings/Rothkoa3.jpeg,0,6,6,tomorrow,6.39383912086,17,0,14,14,5,1.674,17,0,1,1,6,2.532,7,"[0.4, 0]","[-0.4, 0]",Paintings/Rothkoa3new.jpeg,0,7,7,7,2.785,7,Rothko,abstract,1,2016-08-03T15:16:00Z,59.9426912804,tryagainsim,enthusiast,11.5451369286,1-4,18.4687151909,0,3,Rothkoa3.,A,RothkoA,enthusiast 1-4
b_16,15,Paintings/Rothkoa1.jpeg,0,7,7,in a year,1.69223117828,15,0,0,0,3,8.543,15,0,9,9,1,3.047,NA,NA,NA,NA,NA,NA,NA,NA,NA,NA,Rothko,concrete,1,2016-08-03T15:16:00Z,59.9426912804,tryagainsim,enthusiast,11.5451369286,1-4,18.4687151909,1,1,Rothkoa1.,A,RothkoA,enthusiast 1-4
b_16,6,Paintings/MonA1.jpeg,0,8,8,in a year,2.82558703423,6,0,9,9,3,3.278,6,0,13,13,2,4.04,0,"[0.4, 0]","[-0.4, 0]",Paintings/MonA1new.jpeg,0,0,0,4,11.919,0,Mondrian,concrete,1,2016-08-03T15:16:00Z,59.9426912804,tryagainsim,enthusiast,11.5451369286,1-4,18.4687151909,1,1,MonA1.,A,MondrianA,enthusiast 1-4
b_16,11,Paintings/Monb3.jpeg,0,9,9,in a year,6.7977950573,11,0,3,3,1,2.174,11,0,8,8,7,3.348,5,"[0.4, 0]","[-0.4, 0]",Paintings/Monb3new.jpeg,0,1,1,7,4.635,5,Mondrian,abstract,1,2016-08-03T15:16:00Z,59.9426912804,tryagainsim,enthusiast,11.5451369286,1-4,18.4687151909,1,3,Monb3.,B,MondrianB,enthusiast 1-4
b_16,19,Paintings/Rothkob2.jpeg,0,10,10,tomorrow,2.30507993698,19,0,7,7,5,1.782,19,0,19,19,7,2.703,9,"[0.4, 0]","[-0.4, 0]",Paintings/Rothkob3new2.jpeg,0,11,11,4,7.667,9,Rothko,indeterminate,1,2016-08-03T15:16:00Z,59.9426912804,tryagainsim,enthusiast,11.5451369286,1-4,18.4687151909,0,2,Rothkob2.,B,RothkoB,enthusiast 1-4
b_16,8,Paintings/MonA3.jpeg,0,11,11,in a year,1.73709583282,8,0,17,17,1,2.374,8,0,20,20,7,1.607,2,"[0.4, 0]","[-0.4, 0]",Paintings/MonA3new.jpeg,0,13,13,7,3.107,2,Mondrian,abstract,1,2016-08-03T15:16:00Z,59.9426912804,tryagainsim,enthusiast,11.5451369286,1-4,18.4687151909,1,3,MonA3.,A,MondrianA,enthusiast 1-4
b_16,2,Paintings/Clifb3.jpeg,0,12,12,in a year,2.32712888718,2,0,11,11,4,4.476,2,0,12,12,5,7.475,NA,NA,NA,NA,NA,NA,NA,NA,NA,NA,Still,abstract,1,2016-08-03T15:16:00Z,59.9426912804,tryagainsim,enthusiast,11.5451369286,1-4,18.4687151909,1,3,Clifb3.,B,StillB,enthusiast 1-4
b_16,0,Paintings/Clifb1.jpeg,0,13,13,tomorrow,1.49619102478,0,0,13,13,4,1.643,0,0,15,15,3,6.782,NA,NA,NA,NA,NA,NA,NA,NA,NA,NA,Still,concrete,1,2016-08-03T15:16:00Z,59.9426912804,tryagainsim,enthusiast,11.5451369286,1-4,18.4687151909,0,1,Clifb1.,B,StillB,enthusiast 1-4
b_16,7,Paintings/MonA2.jpeg,0,14,14,in a year,1.96649599075,7,0,8,8,2,2.374,7,0,4,4,4,2.511,1,"[0.4, 0]","[-0.4, 0]",Paintings/MonA2new.jpeg,0,8,8,3,6.579,1,Mondrian,indeterminate,1,2016-08-03T15:16:00Z,59.9426912804,tryagainsim,enthusiast,11.5451369286,1-4,18.4687151909,1,2,MonA2.,A,MondrianA,enthusiast 1-4
b_16,4,Paintings/Clifa2.jpeg,0,15,15,in a year,3.82782411575,4,0,2,2,2,2.281,4,0,2,2,3,7.417,NA,NA,NA,NA,NA,NA,NA,NA,NA,NA,Still,indeterminate,1,2016-08-03T15:16:00Z,59.9426912804,tryagainsim,enthusiast,11.5451369286,1-4,18.4687151909,1,2,Clifa2.,A,StillA,enthusiast 1-4
b_16,18,Paintings/Rothkob1.jpeg,0,16,16,in a year,4.29246997833,18,0,5,5,2,2.513,18,0,17,17,2,2.339,8,"[0.4, 0]","[-0.4, 0]",Paintings/Rothkob1new.jpeg,0,2,2,6,4.848,8,Rothko,concrete,1,2016-08-03T15:16:00Z,59.9426912804,tryagainsim,enthusiast,11.5451369286,1-4,18.4687151909,1,1,Rothkob1.,B,RothkoB,enthusiast 1-4
b_16,16,Paintings/Rothkoa2.jpeg,0,17,17,tomorrow,3.89980602264,16,0,1,1,5,4.144,16,0,11,11,7,3.743,6,"[0.4, 0]","[-0.4, 0]",Paintings/Rothkoa2new.jpeg,0,10,10,7,2.478,6,Rothko,indeterminate,1,2016-08-03T15:16:00Z,59.9426912804,tryagainsim,enthusiast,11.5451369286,1-4,18.4687151909,0,2,Rothkoa2.,A,RothkoA,enthusiast 1-4
b_16,9,Paintings/Monb1.jpeg,0,18,18,tomorrow,18.3189339638,9,0,12,12,4,1.711,9,0,14,14,1,4.517,3,"[0.4, 0]","[-0.4, 0]",Paintings/Monb1new.jpeg,0,5,5,5,4.415,3,Mondrian,concrete,1,2016-08-03T15:16:00Z,59.9426912804,tryagainsim,enthusiast,11.5451369286,1-4,18.4687151909,0,1,Monb1.,B,MondrianB,enthusiast 1-4
b_16,13,Paintings/Closea2.jpeg,0,19,19,tomorrow,3.17370796204,13,0,16,16,6,2.847,13,0,0,0,5,6.554,12,"[0.4, 0]","[-0.4, 0]",Paintings/Closea2new.jpeg,0,3,3,3,8.819,12,Close,indeterminate,1,2016-08-03T15:16:00Z,59.9426912804,tryagainsim,enthusiast,11.5451369286,1-4,18.4687151909,0,2,Closea2.,A,CloseA,enthusiast 1-4
b_16,12,Paintings/Closea1.jpeg,0,20,20,in a year,8.74219703674,12,0,10,10,1,7.276,12,0,18,18,2,5.143,11,"[0.4, 0]","[-0.4, 0]",Paintings/Closea1new.jpeg,0,9,9,7,14.118,11,Close,concrete,1,2016-08-03T15:16:00Z,59.9426912804,tryagainsim,enthusiast,11.5451369286,1-4,18.4687151909,1,1,Closea1.,A,CloseA,enthusiast 1-4
b_17,6,Paintings/MonA1.jpeg,0,0,0,tomorrow,17.0514550209,6,0,3,3,6,4.081,6,0,10,10,5,2.813,0,"[0.4, 0]","[-0.4, 0]",Paintings/MonA1new.jpeg,0,2,2,3,5.016,0,Mondrian,concrete,1,2016-08-03T17:37:00Z,59.9592295354,tryagainsim,enthusiast,10.2102611065,1-4,7.89135098457,0,1,MonA1.,A,MondrianA,enthusiast 1-4
